timestamp,imu_angular_velocity.x,imu_angular_velocity.y,imu_angular_velocity.z,imu_linear_acceleration.x,imu_linear_acceleration.y,imu_linear_acceleration.z,gps_latitude,gps_longitude,gps_altitude,pose_pose.position.x,pose_pose.position.y,pose_pose.position.z,vel_vector.x,vel_vector.y,vel_vector.z
1501822123.031318,0.002430921999754,0.0014767774400572,0.0006969802061184,0.1652412265539169,-0.0263445768505334,0.0761191099882125,42.305970862879136,-83.24483290107803,156.02141883583943,1294.558671633213,-1777.5352957692023,-5.597899857108232,-0.0211074878756401,0.0507603759548288,0.0009931534030533
1501822123.039287,0.000800770732839,0.0030471467872279,0.000719217536202,0.2102505266666412,-0.0399504490196704,0.1093806996941566,42.30597086518732,-83.24483290067154,156.0214041033645,1294.558671633213,-1777.5352957692023,-5.597899857108232,-0.0207833259791292,0.0535963959788458,0.0018711859501421
1501822123.041314,-0.0001716903089238,0.0032523384078064,0.0003444835605515,0.2029628455638885,-0.0380456373095512,0.0997076854109764,42.30597086750485,-83.24483290019782,156.0213868537504,1294.558671633213,-1777.5352957692023,-5.597899857108232,-0.0207833259791292,0.0535963959788458,0.0018711859501421
1501822123.049296,-0.0004629104851274,0.0027708633297066,0.0007362226910111,0.1756415665149688,-0.0340904034674167,0.026825500652194,42.305970869834496,-83.24483289968052,156.02136782839386,1294.558671633213,-1777.5352957692023,-5.597899857108232,-0.0200469482006858,0.0539909078286892,0.0020950224375414
1501822123.05131,9.110080144420892e-05,0.0008250717526931,0.0003405590389842,0.1398596912622451,-0.0577830709517002,-0.0230523850768804,42.30597087218544,-83.24483289917237,156.02134789619396,1294.558671633213,-1777.5352957692023,-5.597899857108232,-0.0200469482006858,0.0539909078286892,0.0020950224375414
1501822123.059303,-0.0004911518910826,-0.0002348495213458,0.0012209910902909,0.1305961906909942,-0.0515949837863445,-0.0598549209535121,42.30597087453789,-83.24483289864801,156.02132843576126,1294.558671633213,-1777.5352957692023,-5.597899857108232,-0.0191563687505094,0.0542798672414607,0.0015048767424019
1501822123.061313,0.0011462955334608,-0.0008356122400006,0.0009078921614797,0.1144462153315544,-0.029682021588087,-0.0797776654362678,42.30597087693318,-83.24483289811953,156.0213107141496,1294.558671633213,-1777.5352957692023,-5.597899857108232,-0.0191563687505094,0.0542798672414607,0.0015048767424019
1501822123.069293,0.0018288507171319,-0.0008435101771084,0.0011895960880869,0.126728281378746,-0.0263759512454271,-0.0350796654820442,42.30597087935303,-83.2448328975636,156.021294589243,1294.558671633213,-1777.5352957692023,-5.597899857108232,-0.0182461380794416,0.0557644203057365,0.0015484341886322
1501822123.071316,0.0012531556524232,0.0001328428037852,0.0008096294495226,0.13472780585289,-0.0413604974746704,0.0734614729881286,42.30597088178633,-83.2448328969473,156.02127851209207,1294.558671633213,-1777.5352957692023,-5.597899857108232,-0.0182461380794416,0.0557644203057365,0.0015484341886322
1501822123.079294,-9.92454271767529e-05,0.0003424313140514,0.0010218502289255,0.1602740287780761,-0.0257900226861238,0.0996720045804977,42.30597088421473,-83.24483289627571,156.0212602790686,1294.5577350917115,-1777.5324619133637,-5.597818528821214,-0.0183583644075375,0.0567504116994411,0.0020466409087635
1501822123.089289,-0.0015255901399687,0.0028801319969947,0.000944518428698,0.1476836800575256,-0.011998675763607,0.0067484565079212,42.30597088911046,-83.24483289470294,156.02122097533598,1294.5577350917115,-1777.5324619133637,-5.597818528821214,-0.0176722345412414,0.059970188385388,0.0018761587390636
1501822123.091318,-0.0019227219440707,0.0029816964825473,0.0001741214186972,0.128410130739212,-0.0262165796011686,-0.0415238700807094,42.305970891570354,-83.24483289383099,156.02120180973853,1294.5577350917115,-1777.5324619133637,-5.597818528821214,-0.0176722345412414,0.059970188385388,0.0018761587390636
1501822123.099316,-0.0013380511942506,0.0027809919243016,0.0005540878296964,0.1205288469791412,-0.048165526241064,-0.0765207782387733,42.30597089405385,-83.24483289293477,156.0211841700709,1294.5577350917115,-1777.5324619133637,-5.597818528821214,-0.0166879268040853,0.0604938432897268,0.0009649177411088
1501822123.101307,-0.0010535697388688,0.0020019476055343,0.0007440709539228,0.121403582394123,-0.0534159168601036,-0.1131577715277671,42.30597089655589,-83.2448328920283,156.02116860801232,1294.5577350917115,-1777.5324619133637,-5.597818528821214,-0.0166879268040853,0.0604938432897268,0.0009649177411088
1501822123.109279,-0.000677378534265,0.0005430588577875,0.0011266534200499,0.1296073794364929,-0.0337057746946811,-0.1083803176879882,42.30597089907215,-83.2448328911255,156.021155165303,1294.5577350917115,-1777.5324619133637,-5.597818528821214,-0.0157874029744884,0.0605614573529704,0.0001553745133682
1501822123.11132,0.0005737738956683,-0.0001502026430826,0.0010126942472881,0.1155446544289588,-0.0130660878494381,-0.0831608697772026,42.305970901619474,-83.24483289021563,156.0211439926526,1294.5577350917115,-1777.5324619133637,-5.597818528821214,-0.0157874029744884,0.0605614573529704,0.0001553745133682
1501822123.119325,0.0007512110994655,-0.0018007290103848,0.0012039852202774,0.1034722179174423,-0.0144143784418702,-0.0332495458424091,42.305970904170245,-83.24483288931462,156.0211334708911,1294.5577350917115,-1777.5324619133637,-5.597818528821214,-0.0160456989663557,0.0609784363232313,4.876966928608556e-05
1501822123.12131,-0.0006150192129394,-0.0018818875442334,0.00064057658684,0.10045076161623,0.000852501951158,-0.0283196456730365,42.30597090670771,-83.24483288837816,156.02112353890013,1294.5577350917115,-1777.5324619133637,-5.597818528821214,-0.0160456989663557,0.0609784363232313,4.876966928608556e-05
1501822123.129297,-0.0007175758170241,-0.0023655460763304,0.0006418852158258,0.1028555557131767,0.0157459620386362,-0.0298720858991146,42.30597090924585,-83.2448328874221,156.02111410108552,1294.556935748422,-1777.5293676946376,-5.597841106107614,-0.0157958504473177,0.0625526376574201,-0.0005305436983714
1501822123.13131,-0.000986163155114,-0.0003260884060021,0.0005488563046078,0.0893258154392242,0.0042578671127557,-0.051357015967369,42.30597091179516,-83.24483288638864,156.02110677216956,1294.556935748422,-1777.5293676946376,-5.597841106107614,-0.0157958504473177,0.0625526376574201,-0.0005305436983714
1501822123.139296,-0.000891082127433,-3.628175407433953e-05,0.000159733554369,0.0922374352812767,-0.0077219195663928,-0.0517020374536514,42.30597091435558,-83.24483288532443,156.02110094644536,1294.556935748422,-1777.5293676946376,-5.597841106107614,-0.0149996229020314,0.0642731940693549,-0.0013081919106744
1501822123.141313,-0.0004870217482519,0.0017044848653029,-0.0001363598457761,0.1268913000822067,0.0138260228559374,-0.0518639497458934,42.30597091694027,-83.24483288419216,156.02109745632808,1294.556935748422,-1777.5293676946376,-5.597841106107614,-0.0149996229020314,0.0642731940693549,-0.0013081919106744
1501822123.149326,-0.0006799753113836,0.0025794390036071,-0.0008124197869578,0.1615793257951736,0.0100311180576682,-0.0471487529575824,42.30597091953628,-83.24483288299758,156.02109571069246,1294.556935748422,-1777.5293676946376,-5.597841106107614,-0.0144729198086532,0.0659334990676884,-0.001658833274192
1501822123.151315,-0.0004924416646798,0.0018015163854044,-0.0006211286189128,0.1819899827241897,0.0018345984863117,-0.0138538172468543,42.30597092214097,-83.24483288177184,156.0210944087714,1294.556935748422,-1777.5293676946376,-5.597841106107614,-0.0144729198086532,0.0659334990676884,-0.001658833274192
1501822123.159318,-0.0010827348638086,0.0001598738482128,0.0001623497720434,0.1666791290044784,0.0071476590819656,-0.0215797368437051,42.30597092473446,-83.24483288052669,156.02109265360548,1294.556935748422,-1777.5293676946376,-5.597841106107614,-0.0147443017790646,0.0662231545676807,-0.0015834614918002
1501822123.181322,-0.000725045151644,-0.0018806151305973,-0.000327649827232,0.0618100613355636,0.0256581101566553,-0.0198394320905208,42.30597037054893,-83.24483245479769,156.01357446096654,1294.556550614568,-1777.5263027116025,-5.597981205867362,-0.0147954624385811,0.0673104356530006,-0.0034110792731696
1501822123.189284,-0.0003344425459855,-0.0006245379982604,-0.0012054653032621,0.1174956634640693,0.0204186178743839,0.0377050973474979,42.30597037057017,-83.2448324547525,156.01359274849875,1294.556550614568,-1777.5263027116025,-5.597981205867362,-0.0144327870495973,0.0698081771663617,-0.0032787184635789
1501822123.191325,-0.001293067568629,0.0005501835289079,-0.0013862914705724,0.1871062219142913,0.0451839566230773,0.0425690151751041,42.30597037059064,-83.24483245468767,156.01361057785644,1294.556550614568,-1777.5263027116025,-5.597981205867362,-0.0144327870495973,0.0698081771663617,-0.0032787184635789
1501822123.20132,-0.0023471523196804,0.0009502563835164,-0.0007901786857965,0.2191851586103439,0.0283756684511899,1.6678657630109228e-05,42.30597037340363,-83.24483244295578,156.0136444947298,1294.556550614568,-1777.5263027116025,-5.597981205867362,-0.0144154525475563,0.0723800390601251,-0.0031617968123914
1501822123.209309,-0.0017673411886639,0.0005556703169467,-0.0006041194979702,0.1940120458602905,0.0102680176496505,-0.0384048745036125,42.30597037343792,-83.24483244295223,156.01366163008623,1294.556550614568,-1777.5263027116025,-5.597981205867362,-0.0139164319188715,0.0733226972262916,-0.0035353721666895
1501822123.211316,-0.0016861019017374,-0.0008028365032041,-0.0006054272817145,0.1582081317901611,0.001444328110665,-0.0632517710328102,42.30597037483456,-83.24483243710695,156.01367939486718,1294.556550614568,-1777.5263027116025,-5.597981205867362,-0.0139164319188715,0.0733226972262916,-0.0035353721666895
1501822123.219291,-4.82771052844212e-05,-0.0009187588470096,-0.0013063407218901,0.1355147957801818,0.0166586302220821,-0.0647720396518707,42.30597037623627,-83.24483243123592,156.01369899682527,1294.556550614568,-1777.5263027116025,-5.597981205867362,-0.0131234007972334,0.073702171113837,-0.0039127573732934
1501822123.229295,0.000334449535483,-0.0030565058218947,0.0001427324632212,0.1093568131327629,0.0502728670835495,0.00517692649737,42.30597037625963,-83.24483243111092,156.0137389245968,1294.5557894747762,-1777.5221880776633,-5.598187709944867,-0.0134916845761844,0.0746238861789315,-0.0035943957417141
1501822123.231364,0.000233578976994,-0.0030553386083232,-0.0001468203439741,0.0970354378223419,0.0339483059942722,0.0450214520096778,42.30597037763752,-83.24483242521953,156.01375834248455,1294.5557894747762,-1777.5221880776633,-5.598187709944867,-0.0134916845761844,0.0746238861789315,-0.0035943957417141
1501822123.241336,-0.000804040452274,-0.0003281981939467,-0.0003263381098635,0.0800425708293914,0.0206707138568162,0.0351841486990451,42.30597038040017,-83.24483241344198,156.01379599843463,1294.5557894747762,-1777.5221880776633,-5.598187709944867,-0.0134883136664689,0.0766670040352135,-0.0034385321233199
1501822123.2493,-0.0023477143402972,0.000562386281265,-0.0004993153315671,0.0827712640166282,0.006789315957576,0.0250735916197299,42.30597038041546,-83.2448324134261,156.01381405569865,1294.5557894747762,-1777.5221880776633,-5.598187709944867,-0.0132764156709353,0.0786173332961464,-0.0036875575046189
1501822123.251328,-0.0014506979669488,0.002103509750418,-2.631911737624625e-05,0.1050179675221443,0.0165308900177478,-0.0234489701688289,42.30597038044824,-83.24483241342877,156.01383307533186,1294.5557894747762,-1777.5221880776633,-5.598187709944867,-0.0132764156709353,0.0786173332961464,-0.0036875575046189
1501822123.259307,-0.0023361178862107,0.0020167866663074,-0.00088712945282,0.1565189659595489,0.0261944010853767,-0.0305527113378047,42.30597038182759,-83.24483240763666,156.01385265358206,1294.5557894747762,-1777.5221880776633,-5.598187709944867,-0.0127552233871432,0.0801144822554944,-0.0039152730336125
1501822123.261333,-0.0007801088029803,0.0015139346490104,-0.0001324291149343,0.2090934962034225,0.0240217130631208,-0.0175271481275558,42.30597038322814,-83.2448324018091,156.01387284095767,1294.5557894747762,-1777.5221880776633,-5.598187709944867,-0.0127552233871432,0.0801144822554944,-0.0039152730336125
1501822123.269373,0.000750670469962,0.0005265303216886,-0.0008320351777318,0.2395995706319809,0.0426266342401504,0.0125834923237562,42.30597038323273,-83.24483240183608,156.01389286486585,1294.5557894747762,-1777.5221880776633,-5.598187709944867,-0.0120352337455878,0.081523073348587,-0.0034844037026648
1501822123.271339,0.0007486065851357,-0.0004431356362827,-0.0001533595552791,0.2287350744009018,0.0363801605999469,0.0481324829161167,42.305970384600265,-83.2448323959635,156.01391168360522,1294.5557894747762,-1777.5221880776633,-5.598187709944867,-0.0120352337455878,0.081523073348587,-0.0034844037026648
1501822123.279303,0.0007261671773015,-0.002382256111799,-0.0001533596853163,0.1842882335186004,0.0186195131391286,0.0633796826004982,42.30597038596459,-83.2448323901042,156.01392814250724,1294.5552362213198,-1777.518515096236,-5.598334959090533,-0.0117318470316545,0.0817880211235279,-0.0027099879597729
1501822123.28133,0.0016935765678809,-0.0033631409934645,0.0005122352063666,0.1144233494997024,0.008830290287733,0.0392940789461135,42.30597038596776,-83.24483239004834,156.01394298084486,1294.5552362213198,-1777.518515096236,-5.598334959090533,-0.0117318470316545,0.0817880211235279,-0.0027099879597729
1501822123.289353,0.0017998785673414,-0.0021037732057094,0.0001231120091252,0.0599517114460468,0.0260314829647541,0.0290478784590959,42.305970387325736,-83.24483238415948,156.01395768829363,1294.5552362213198,-1777.518515096236,-5.598334959090533,-0.0114693768745903,0.0830026034464299,-0.0026285221185588
1501822123.291418,0.001908790152581,-0.0015232189123087,0.0005096183710157,0.0388848036527633,0.0190453063696622,0.0290265474468469,42.30597038868109,-83.24483237827533,156.01397200066515,1294.5552362213198,-1777.518515096236,-5.598334959090533,-0.0114693768745903,0.0830026034464299,-0.0026285221185588
1501822123.299311,0.0021219447288485,2.581951662936186e-05,0.0006039554560896,0.0553499013185501,0.0311677288264036,0.0400967374444007,42.305970390028136,-83.24483237241901,156.0139863143162,1294.5552362213198,-1777.518515096236,-5.598334959090533,-0.0114209383443213,0.0853944677627195,-0.0024441533531064
1501822123.301338,0.0008775302395139,0.0019796012392899,0.0001361917889981,0.1203962117433548,0.0368662998080253,0.0675995945930481,42.305970389994414,-83.2448323724335,156.01400017758007,1294.5552362213198,-1777.518515096236,-5.598334959090533,-0.0114209383443213,0.0853944677627195,-0.0024441533531064
1501822123.309317,-0.0003653965596619,0.0031576128367093,0.0004440581524235,0.1927904933691024,0.0366198010742664,0.0608173459768295,42.30597039134302,-83.24483236663151,156.0140129366634,1294.5552362213198,-1777.518515096236,-5.598334959090533,-0.0115706769291662,0.0882873925357521,-0.0019716063051156
1501822123.311329,-0.0008469535611741,0.0035510615982549,0.0003536449712404,0.2173466682434082,0.035071425139904,0.0626164972782135,42.30597039269866,-83.24483236087352,156.01402436765994,1294.5552362213198,-1777.518515096236,-5.598334959090533,-0.0115706769291662,0.0882873925357521,-0.0019716063051156
1501822123.319316,-0.0003837162601478,0.002479041731626,-0.0003315716830375,0.2232818901538849,0.0166698582470417,0.0295711643993854,42.30597039405964,-83.24483235512176,156.01403422852923,1294.5552362213198,-1777.518515096236,-5.598334959090533,-0.0108634247332109,0.0893993015692856,-0.0016615064749743
1501822123.321333,9.31596717123562e-05,0.0011159568231286,0.000243609864916,0.2271377891302108,-0.0004610299365594,-0.0052765309810638,42.30597039405711,-83.24483235515488,156.0140432129721,1294.5552362213198,-1777.518515096236,-5.598334959090533,-0.0108634247332109,0.0893993015692856,-0.0016615064749743
1501822123.329312,0.0006643674709052,-0.0002482193084733,0.0006235758532944,0.2049376815557479,0.0050172703340649,-0.050146322697401,42.30597039541829,-83.24483234934691,156.0140523314366,1294.5550051298055,-1777.513930121337,-5.598443926123502,-0.0100119921650887,0.0899744437464126,-0.0018942436073019
1501822123.331327,0.0020023693160526,-0.0018152066978831,0.0005083083116211,0.1936948150396347,0.0165386125445365,-0.0402286946773529,42.30597039540403,-83.24483234936669,156.01406201258587,1294.5550051298055,-1777.513930121337,-5.598443926123502,-0.0100119921650887,0.0899744437464126,-0.0018942436073019
1501822123.33931,0.0024895362507966,-0.0017238744465441,0.0005987209401462,0.190945029258728,0.0304276645183563,-0.0133326957002282,42.30597039675116,-83.24483234350427,156.0140725519841,1294.5550051298055,-1777.513930121337,-5.598443926123502,-0.0089967210360456,0.0920540544322505,-0.0019199301655633
1501822123.34138,0.0035714722312968,-0.0009606415414332,0.0010690996220683,0.1971630454063415,0.0235129222273826,0.0427351668477058,42.30597039809069,-83.24483233764452,156.01408335156952,1294.5550051298055,-1777.513930121337,-5.598443926123502,-0.0089967210360456,0.0920540544322505,-0.0019199301655633
1501822123.349306,0.0029869871745449,-0.0008569075808783,0.0007860861562151,0.1931009590625763,0.0261491741985082,0.0983363911509513,42.30597039940784,-83.24483233181353,156.01409243753088,1294.5550051298055,-1777.513930121337,-5.598443926123502,-0.0088149187464168,0.0944812727031078,-0.0009029085160784
1501822123.351334,0.0024191401126736,0.0001193547397309,0.0009878416748089,0.1881107687950134,0.0092358523979783,0.1280040889978408,42.305970400735085,-83.24483232597521,156.0140992117168,1294.5550051298055,-1777.513930121337,-5.598443926123502,-0.0088149187464168,0.0944812727031078,-0.0009029085160784
1501822123.359314,0.0010734766079428,0.0015894629638298,0.0006183399069422,0.1631744503974914,0.0114082237705588,0.093544565141201,42.30597040206287,-83.24483232016793,156.0141038931724,1294.5550051298055,-1777.513930121337,-5.598443926123502,-0.0086494756106902,0.0970194548572247,-0.0004664827064685
1501822123.361337,0.0008760353973112,0.0020765932280939,-5.7720188658493405e-05,0.1733158081769943,0.0177412182092666,0.0329735726118087,42.30597040203528,-83.24483232021883,156.01410730178273,1294.5550051298055,-1777.513930121337,-5.598443926123502,-0.0086494756106902,0.0970194548572247,-0.0004664827064685
1501822123.3693,0.0005099298750388,0.0030505204713745,0.0007231416026392,0.2005591839551925,0.0156195918098092,-0.0388190075755119,42.3059704033855,-83.24483231440968,156.01411131941526,1294.5550051298055,-1777.513930121337,-5.598443926123502,-0.0079179516422207,0.099427807629526,-0.001149974017082
1501822123.371331,0.0011833277767008,0.0030427281244427,0.0003261694841729,0.2262126952409744,0.0101906731724739,-0.0672512575984001,42.30597040472729,-83.2448323086568,156.0141168463374,1294.5550051298055,-1777.513930121337,-5.598443926123502,-0.0079179516422207,0.099427807629526,-0.001149974017082
1501822123.37935,0.0010770318889869,0.0024621444426432,0.0001335695164684,0.2473984509706497,-0.0034319786354899,-0.0373278968036174,42.30597040606501,-83.24483230288118,156.01412346114384,1294.5546191885132,-1777.508900550792,-5.598493401575679,-0.0071340605944368,0.1011743352284965,-0.0013307052478755
1501822123.381337,0.001647680991638,0.0013888820709257,0.0002226740442836,0.2674720883369446,0.003435359802097,-0.0208146311342716,42.30597040740879,-83.24483229708663,156.01413042354596,1294.5546191885132,-1777.508900550792,-5.598493401575679,-0.0071340605944368,0.1011743352284965,-0.0013307052478755
1501822123.389349,0.0021210054704231,-0.0001680990238403,0.0007009014117381,0.2846543788909912,0.0036459751427173,0.0076404619030654,42.30597040874917,-83.24483229127263,156.0141369004669,1294.5546191885132,-1777.508900550792,-5.598493401575679,-0.0064863072053695,0.1027291806120627,-0.0009035268184136
1501822123.391499,0.0021038041545541,-0.0014284964621035,0.0005069934408515,0.2749930918216705,0.0059979679062962,0.030965369194746,42.30597040871525,-83.244832291288,156.0141423430781,1294.5546191885132,-1777.508900550792,-5.598493401575679,-0.0064863072053695,0.1027291806120627,-0.0009035268184136
1501822123.399321,0.0018082891109442,-0.0017159831413316,0.0004139637169012,0.2752602100372314,-0.000934716546908,0.0279091037809848,42.30597041005924,-83.24483228543195,156.01414697869492,1294.5546191885132,-1777.508900550792,-5.598493401575679,-0.00561972630202,0.1052536543344876,-0.0009050093465579
1501822123.40133,0.0023993208886472,-0.0011410077022808,0.0006000221570138,0.2350423038005828,0.0182664692401886,-0.0100024174898862,42.30597041140928,-83.24483227956823,156.01415189080583,1294.5546191885132,-1777.508900550792,-5.598493401575679,-0.00561972630202,0.1052536543344876,-0.0009050093465579
1501822123.419537,0.001645815998652,0.0016798157752601,-0.0001651444982328,0.164187803864479,0.0050301374867558,-0.0136381117627024,42.305970415422905,-83.24483226205611,156.01417142127838,1294.5546191885132,-1777.508900550792,-5.598493401575679,-0.0042125913652152,0.1099126767182085,-0.0014201497756898
1501822123.421332,0.0023270678198423,0.0023507161181587,-0.0005621167792455,0.1922112256288528,0.0097010461613535,0.0094763543456792,42.30597041676626,-83.24483225622964,156.01417909717523,1294.5546191885132,-1777.508900550792,-5.598493401575679,-0.0042125913652152,0.1099126767182085,-0.0014201497756898
1501822123.429304,0.0014640703385649,0.0021667652878682,0.0003222387858404,0.2612519562244415,0.0040902909822762,0.003962576854974,42.30597041810245,-83.24483225039292,156.01418647335072,1294.5547797447832,-1777.5042974210032,-5.598562753859608,-0.0032318144168878,0.1125536348839317,-0.0014689936456093
1501822123.431342,0.0024268159463077,0.0022525939763744,-0.0002725651423846,0.3086773157119751,-0.0210622437298297,-0.0027935674879699,42.30597041807064,-83.24483225043836,156.01419415898897,1294.5547797447832,-1777.5042974210032,-5.598562753859608,-0.0032318144168878,0.1125536348839317,-0.0014689936456093
1501822123.439318,0.0018378362850676,0.0012897202820265,2.614374397600211e-05,0.3275827169418335,-0.0105099203065037,-0.0311275459825992,42.305970420772645,-83.2448322387732,156.01420182036316,1294.5547797447832,-1777.5042974210032,-5.598562753859608,-0.0030325039472777,0.1152626978373675,-0.0016330116904084
1501822123.441341,0.0007635628744109,0.000623369224243,4.053258358289543e-05,0.3295014500617981,0.0029333420097827,-0.0338984578847885,42.3059704221132,-83.24483223294706,156.01420993669657,1294.5547797447832,-1777.5042974210032,-5.598562753859608,-0.0030325039472777,0.1152626978373675,-0.0016330116904084
1501822123.449366,0.0024944048421644,-0.0001724120964495,-0.0003708285370367,0.2849979102611542,-0.0135206328704953,-0.0384941883385181,42.30597042347016,-83.24483222711623,156.01421892369908,1294.5547797447832,-1777.5042974210032,-5.598562753859608,-0.0017182565590534,0.1170277079244084,-0.0019605541536158
1501822123.451341,0.0021990753615855,-0.0005568697147159,-0.0003669049907481,0.2306058853864669,-0.0027120707090944,-0.0316560938954353,42.30597042344351,-83.24483222707983,156.0142286618544,1294.5547797447832,-1777.5042974210032,-5.598562753859608,-0.0017182565590534,0.1170277079244084,-0.0019605541536158
1501822123.459313,0.002394272065772,-0.0012379111357771,0.000309154283993,0.2112088054418563,-0.0045060832053422,-0.0017917610239237,42.30597042616202,-83.2448322153598,156.0142385757795,1294.5547797447832,-1777.5042974210032,-5.598562753859608,-0.0014035542130608,0.1186558930567461,-0.0020485312114339
1501822123.461351,0.0016087888268613,-0.0015197278046043,-0.0001651498460111,0.1947032511234283,-0.0042353067547082,-0.0317829996347427,42.30597042750369,-83.24483220949631,156.0142487475028,1294.5547797447832,-1777.5042974210032,-5.598562753859608,-0.0014035542130608,0.1186558930567461,-0.0020485312114339
1501822123.469322,0.0014257366834016,-0.0010327639228897,0.0002252810618287,0.1844420880079269,0.0173176787793636,-0.0453747473657131,42.30597042886185,-83.24483220361087,156.01426019630932,1294.5547797447832,-1777.5042974210032,-5.598562753859608,-0.0010383052264448,0.1211726395955696,-0.0025431713024253
1501822123.471331,0.0007458040242073,-0.0003461119834295,-0.0004442383839308,0.2248725891113281,0.0052889580838382,-0.0257781948894262,42.30597043021579,-83.24483219775358,156.0142728995383,1294.5547797447832,-1777.5042974210032,-5.598562753859608,-0.0010383052264448,0.1211726395955696,-0.0025431713024253
1501822123.479294,0.0013396428491209,0.0008106446496511,-0.0005490408923601,0.2358999848365783,0.0003428060153964,-0.0155545473098754,42.305970431582736,-83.24483219188262,156.0142869279347,1294.5547405290936,-1777.4975568863151,-5.598708527251821,-2.106268153217313e-05,0.1241704000800022,-0.0028250093258491
1501822123.481335,0.0006662496287966,0.0014972209725013,-0.0007337920363678,0.2510402798652649,-0.0062106749974191,0.0092635862529277,42.30597043293818,-83.24483218602441,156.01430142261484,1294.5547405290936,-1777.4975568863151,-5.598708527251821,-2.106268153217313e-05,0.1241704000800022,-0.0028250093258491
1501822123.489311,0.0009546606771951,0.0013969145964968,-0.0008346703808319,0.2444135993719101,-0.0076147303916513,-0.0004172277695033,42.30597043430116,-83.24483218017477,156.01431591231346,1294.5547405290936,-1777.4975568863151,-5.598708527251821,0.0004874318991983,0.1263885700257908,-0.00300772040728
1501822123.491341,-0.000112323150837,0.001021385996255,-0.0005294203326088,0.2467729598283767,-0.0164991840720176,-0.0404327027499675,42.30597043566206,-83.24483217431678,156.0143306761317,1294.5547405290936,-1777.4975568863151,-5.598708527251821,0.0004874318991983,0.1263885700257908,-0.00300772040728
1501822123.499357,0.0006606326085395,0.0003336581293114,-0.0001520703505944,0.2465435266494751,-0.0213473886251449,-0.052029263228178,42.305970437034766,-83.2448321684728,156.01434645625503,1294.5547405290936,-1777.4975568863151,-5.598708527251821,0.0015969857587102,0.1279654872945995,-0.0034726840181394
1501822123.501365,0.0008397552890197,-0.0008320425898501,-0.0002516405862214,0.2726848423480987,-0.0216084960848093,-0.0627590268850326,42.3059704397665,-83.24483215678917,156.01436320405242,1294.5547405290936,-1777.4975568863151,-5.598708527251821,0.0015969857587102,0.1279654872945995,-0.0034726840181394
1501822123.509309,0.0014139628586254,-0.0010326249781815,-0.0006473042545029,0.2911490797996521,-0.0199215840548276,-0.0340145304799079,42.30597044113235,-83.24483215091749,156.01438128103257,1294.5547405290936,-1777.4975568863151,-5.598708527251821,0.0028273193480644,0.1307893450745083,-0.0038583670273073
1501822123.511403,0.0012372645910047,-0.0004487654977096,0.000130941310993,0.2917563021183014,-0.0131535250693559,-0.0190669205039739,42.3059704411263,-83.24483215085944,156.0144004440141,1294.5547405290936,-1777.4975568863151,-5.598708527251821,0.0028273193480644,0.1307893450745083,-0.0038583670273073
1501822123.519391,0.0005431108401433,-0.0005376995061681,-0.0009265710896272,0.2770397067070007,-0.0212529078125953,0.0046326844021677,42.30597044385112,-83.24483213917061,156.01881809327546,1294.5547405290936,-1777.4975568863151,-5.598708527251821,0.0041531477061938,0.1333843070544858,-0.0037941749525302
1501822123.521377,0.0002705774268263,0.0001442339210646,-0.0001470167325989,0.2758405804634094,-0.0212261825799942,0.0293699949979782,42.30597044551782,-83.24483213211657,156.0188374784922,1294.5547405290936,-1777.4975568863151,-5.598708527251821,0.0041531477061938,0.1333843070544858,-0.0037941749525302
1501822123.529331,-0.0006118505323797,-0.0001364601694471,-0.000620012379909,0.2457976788282394,-0.0239608809351921,0.0215352997183799,42.30597044688592,-83.2448321262717,156.0188560908715,1294.55525234705,-1777.4912021780628,-5.598908359302403,0.0043309322984963,0.1344957166566746,-0.0036592937971861
1501822123.53945,-0.0010889189761318,0.0006448124173746,-0.0007104248783969,0.2682522535324096,-0.0182251967489719,-0.0358385220170021,42.30597045102995,-83.244832108721,156.0188937085818,1294.55525234705,-1777.4912021780628,-5.598908359302403,0.0061631638588181,0.138495874899097,-0.0042587970253583
1501822123.541352,-0.0003038076760155,0.0011205721021037,-0.000430028507969,0.2630520462989807,-0.031609546393156,-0.0437070615589618,42.30597045241933,-83.24483210286832,156.0189144107598,1294.55525234705,-1777.4912021780628,-5.598908359302403,0.0061631638588181,0.138495874899097,-0.0042587970253583
1501822123.549443,-0.0020520379205684,0.0007529268097888,-0.0003095287910213,0.2858425080776214,-0.0386887714266777,-0.0424895249307155,42.30597045516412,-83.24483209119325,156.01893589141923,1294.55525234705,-1777.4912021780628,-5.598908359302403,0.007144204167389,0.1410971020679296,-0.0046105448481933
1501822123.551375,-0.0007870502517386,0.001029194922925,-0.0002295799116232,0.2776850461959839,-0.0282570645213127,-0.0188766065984964,42.30597045519017,-83.24483209120625,156.0189586152865,1294.55525234705,-1777.4912021780628,-5.598908359302403,0.007144204167389,0.1410971020679296,-0.0046105448481933
1501822123.559443,-0.0013808895968008,-0.0001275613606807,-0.0001247775494857,0.2784091234207153,-0.028638107702136,-0.0106441043317317,42.30597045793926,-83.24483207954184,156.01898114743315,1294.55525234705,-1777.4912021780628,-5.598908359302403,0.0081515309727489,0.1430217280307317,-0.0045593998918979
1501822123.561387,-0.000807432081549,-0.0006190427578061,-0.0003265331981167,0.2830211222171783,-0.0400231406092643,-0.0006340587278828,42.30597045932928,-83.2448320737037,156.01900379052069,1294.55525234705,-1777.4912021780628,-5.598908359302403,0.0081515309727489,0.1430217280307317,-0.0045593998918979
1501822123.569431,-0.0014933582185862,-0.0015807954667938,-2.6515006170721455e-05,0.2617494761943817,-0.0215373821556568,-0.0152963073924183,42.3059704620871,-83.24483206200449,156.0190261603686,1294.55525234705,-1777.4912021780628,-5.598908359302403,0.0088658046358118,0.145191783757342,-0.0047229364613951
1501822123.57138,-0.0014007066101954,-0.001387929808784,-0.0005125910205528,0.2583213448524475,-0.0218709763139486,-0.025317495688796,42.30597046348396,-83.2448320561447,156.0190492921987,1294.55525234705,-1777.4912021780628,-5.598908359302403,0.0088658046358118,0.145191783757342,-0.0047229364613951
1501822123.589358,-0.0005892309580567,0.0010269056186774,5.866692828447514e-05,0.306354820728302,-0.0289374068379402,-0.0058218860067427,42.305970469000655,-83.24483203281585,156.01912701384094,1294.5557273280513,-1777.4838052703806,-5.599155734665875,0.0114969892195988,0.1516463886882303,-0.005381192975658
1501822123.591397,-0.0014546522670263,0.0014247966447532,0.000264347443894,0.2918600738048553,-0.0389129593968391,0.0193972550332546,42.305970470373445,-83.24483202700239,156.01915386056467,1294.5557273280513,-1777.4838052703806,-5.599155734665875,0.0114969892195988,0.1516463886882303,-0.005381192975658
1501822123.599377,-0.0014636283422492,0.0006491480514314,0.0002643477852415,0.2981730103492737,-0.0253240037709474,0.0028347275219857,42.30597047175311,-83.24483202121134,156.0191801674494,1294.5557273280513,-1777.4838052703806,-5.599155734665875,0.0122627723921782,0.1537135718487605,-0.0053509561160566
1501822123.601403,-0.001659958450345,-0.0001243323428776,0.000751732938599,0.2650425434112549,-0.0152548979967832,-0.0186892170459032,42.30597047450693,-83.24483200956699,156.0192063658563,1294.5557273280513,-1777.4838052703806,-5.599155734665875,0.0122627723921782,0.1537135718487605,-0.0053509561160566
1501822123.609315,-0.0003051269680486,-0.000236979676361,0.0006364660471116,0.2663333415985107,-0.0104010226204991,-0.0638740137219429,42.30597047726121,-83.244831997932,156.01923385791855,1294.5557273280513,-1777.4838052703806,-5.599155734665875,0.0120232288425133,0.1568722184394854,-0.0059419211984659
1501822123.611346,-0.0008894318258024,-0.0009090009233466,0.001032129536592,0.2663195729255676,0.0029854045715183,-0.0571553669869899,42.30597023196986,-83.24483177767033,156.0203641946814,1294.5557273280513,-1777.4838052703806,-5.599155734665875,0.0120232288425133,0.1568722184394854,-0.0059419211984659
1501822123.619334,-0.0004947243695414,-0.0004287233249679,0.001123851249233,0.2537727952003479,0.0186727251857519,-0.0520985759794712,42.305970237223775,-83.2448317718183,156.02038782180472,1294.5557273280513,-1777.4838052703806,-5.599155734665875,0.0133151387538549,0.1589644090551762,-0.0064709722911379
1501822123.621348,0.0005587955000755,-0.0012166667044486,0.0008186008434077,0.2539563477039337,-0.0105996886268258,-0.0405071415007114,42.3059702425092,-83.24483176591988,156.02041244910683,1294.5557273280513,-1777.4838052703806,-5.599155734665875,0.0133151387538549,0.1589644090551762,-0.0064709722911379
1501822123.629312,-0.0004980894062167,-0.0007195907428586,0.0011238511191958,0.2661359906196594,0.0096846939995884,0.0276992823928594,42.30597024779612,-83.24483175992621,156.0204374689346,1294.5563856121353,-1777.4757347615705,-5.5994707433763535,0.0137624423611415,0.161943734206822,-0.0063595590437382
1501822123.631386,-0.0006107326028929,-0.0007182871203036,-3.828498875520002e-05,0.2913912832736969,0.0215710494667291,0.0090501056984066,42.305970253101975,-83.24483175385316,156.02046214446227,1294.5563856121353,-1777.4757347615705,-5.5994707433763535,0.0137624423611415,0.161943734206822,-0.0063595590437382
1501822123.639317,-0.0007982729140012,-0.0006191478278335,0.0003521463254507,0.2960951328277588,0.0165949575603008,-0.0023047537542879,42.305970258419954,-83.2448317476888,156.0204868796236,1294.5563856121353,-1777.4757347615705,-5.5994707433763535,0.0140580049689694,0.1652843748042902,-0.00647330207252
1501822123.641347,-0.001952855195686,-0.0004118488249979,0.0008526126484534,0.3304804861545563,0.015797222033143,-0.011007479391992,42.30597026373551,-83.24483174141764,156.02051185566248,1294.5563856121353,-1777.4757347615705,-5.5994707433763535,0.0140580049689694,0.1652843748042902,-0.00647330207252
1501822123.649305,-0.0001059919339736,0.0004395002198371,0.0004399441667102,0.329348087310791,0.036558661609888,-0.0207543224096298,42.305970269106346,-83.24483173504441,156.020538084511,1294.5563856121353,-1777.4757347615705,-5.5994707433763535,0.0152133100151298,0.1684132348311291,-0.0067841686699925
1501822123.651347,-0.0009865570376796,-0.0001321235438568,0.0003547632583295,0.3192668557167053,0.0314389914274215,-0.0175659656524658,42.30597027447444,-83.24483172858139,156.02056448791365,1294.5563856121353,-1777.4757347615705,-5.5994707433763535,0.0152133100151298,0.1684132348311291,-0.0067841686699925
1501822123.659332,-0.0004003912831104,-0.0004298138491228,0.0009286371850852,0.314722865819931,0.0449015162885189,-0.0055981869809329,42.305970279862485,-83.24483172203304,156.02059121756986,1294.5563856121353,-1777.4757347615705,-5.5994707433763535,0.0157903252370514,0.170953548535083,-0.0067177463786969
1501822123.661343,-0.0004101165999549,-0.001496360256522,0.0011225447658603,0.3118183314800262,0.0415592789649963,0.0026830015704035,42.3059702852563,-83.24483171541438,156.0206175231734,1294.5563856121353,-1777.4757347615705,-5.5994707433763535,0.0157903252370514,0.170953548535083,-0.0067177463786969
1501822123.669426,-0.0006028883061147,-0.001397160236697,0.001125161243609,0.2818681001663208,0.0473717302083969,-0.01033800188452,42.30597029065844,-83.24483170870224,156.02064405704914,1294.5563856121353,-1777.4757347615705,-5.5994707433763535,0.0160850997308534,0.1736018508697092,-0.0067179307786613
1501822123.671367,-0.0009098035127142,-0.0018784536528806,0.0003534561897896,0.2742207944393158,0.0431447364389896,0.0077747632749378,42.30597029606545,-83.24483170191675,156.02067042771492,1294.5563856121353,-1777.4757347615705,-5.5994707433763535,0.0160850997308534,0.1736018508697092,-0.0067179307786613
1501822123.679328,-0.0009111111014027,-0.0018784385685697,0.0002565029195507,0.2853058278560638,0.0347329042851924,-0.0073269843123853,42.30597030148397,-83.24483169504725,156.02069689610906,1294.5575380426203,-1777.4673207423796,-5.59980515899828,0.0168738818553825,0.1768501926849686,-0.0069636420673607
1501822123.681357,-0.0007037524115095,-0.0007172096973928,0.0002538870757332,0.2903254628181457,0.041660476475954,-0.0058642532676458,42.3059703069242,-83.24483168806594,156.020724287817,1294.5575380426203,-1777.4673207423796,-5.59980515899828,0.0168738818553825,0.1768501926849686,-0.0069636420673607
1501822123.689328,-0.0012873018508764,-0.0004195496257672,-0.0001260788882631,0.2855904996395111,0.0465355776250362,-0.0006091831019148,42.30597031236814,-83.24483168098729,156.02075194447204,1294.5575380426203,-1777.4673207423796,-5.59980515899828,0.0169285251482357,0.1804940298265749,-0.0069031555897619
1501822123.691346,-0.0023385774091041,0.0005623059182985,0.0001791720133287,0.3077839612960815,0.0476899072527885,0.0390736237168312,42.30597031780886,-83.24483167378712,156.020779599718,1294.5575380426203,-1777.4673207423796,-5.59980515899828,0.0169285251482357,0.1804940298265749,-0.0069031555897619
1501822123.699334,-0.0008879213141216,0.0003515804037191,6.259714304131433e-05,0.3485143184661865,0.025811206549406,0.0238735266029834,42.30597032328898,-83.24483166650496,156.02080668763531,1294.5575380426203,-1777.4673207423796,-5.59980515899828,0.0175469506644196,0.1837227778125798,-0.0067378838832882
1501822123.701351,-0.0025365881174894,-1.721702801546723e-05,0.0003756963481815,0.3497500717639923,0.0461212247610092,0.0073799733072519,42.30597032875423,-83.24483165911388,156.02083308646624,1294.5575380426203,-1777.4673207423796,-5.59980515899828,0.0175469506644196,0.1837227778125798,-0.0067378838832882
1501822123.709311,-0.0018547831182094,-0.0003160144595246,0.0008513089608797,0.3899684250354767,0.0522801019251346,-0.0044502364471554,42.30597033424282,-83.24483165162222,156.0208595162381,1294.5575380426203,-1777.4673207423796,-5.59980515899828,0.0184596645251803,0.1871391327504587,-0.0067891937657375
1501822123.711356,-0.0020692336448393,-0.0005074708397847,-0.0005034263589349,0.360097736120224,0.0491673462092876,-0.0006872413214296,42.305970339747375,-83.24483164402443,156.02088603039266,1294.5575380426203,-1777.4673207423796,-5.59980515899828,0.0184596645251803,0.1871391327504587,-0.0067891937657375
1501822123.719357,-0.0011033135698832,-0.0007125869412809,-0.0006134606525271,0.3430196046829223,0.0325249955058097,-0.0105275642126798,42.305970345283534,-83.24483163633384,156.02091284614,1294.5575380426203,-1777.4673207423796,-5.59980515899828,0.0190874688958012,0.1897233510666742,-0.0067528919596662
1501822123.721354,-0.0016879964131594,-0.0018694492295562,0.0001700179985035,0.2953580915927887,0.0329949967563152,0.0014111178461462,42.30597035081534,-83.24483162856825,156.02093918833938,1294.5575380426203,-1777.4673207423796,-5.59980515899828,0.0190874688958012,0.1897233510666742,-0.0067528919596662
1501822123.729342,-0.0007271158634212,-0.001492692688388,-0.0008125996283536,0.2492983192205429,0.0444799251854419,-0.0116951027885079,42.30597035638028,-83.24483162072191,156.02096610685464,1294.5584924195505,-1777.4577203469644,-5.60015275163149,0.0195190754583243,0.1922528649636694,-0.0069220969968626
1501822123.731359,-0.0015912345901331,-0.0017736001373743,7.175706643016039e-05,0.2527548968791961,0.0458886735141277,-0.0120431939139962,42.30597036193299,-83.24483161279643,156.02099312470392,1294.5584924195505,-1777.4577203469644,-5.60015275163149,0.0195190754583243,0.1922528649636694,-0.0069220969968626
1501822123.739334,-0.0009096096923233,-0.0012966430704519,-0.0001313065041096,0.246329054236412,0.0392047055065631,-0.0122583024203777,42.30597036750901,-83.24483160478974,156.02102088671438,1294.5584924195505,-1777.4577203469644,-5.60015275163149,0.0203098172551174,0.1952564093466367,-0.0073137848267934
1501822123.741398,-0.0011957715529388,-0.0003236412041298,-0.0006121504630953,0.2624551653861999,0.0471993833780288,-0.0240698829293251,42.3059703730957,-83.2448315966825,156.02104967720166,1294.5584924195505,-1777.4577203469644,-5.60015275163149,0.0203098172551174,0.1952564093466367,-0.0073137848267934
1501822123.749355,-0.0011957662214151,0.0003551417640006,-0.0011938724902162,0.3334332406520843,0.0179346390068531,-0.0079396534711122,42.305970378702106,-83.24483158847232,156.02107935249518,1294.5584924195505,-1777.4577203469644,-5.60015275163149,0.0214437667452859,0.1993507787402161,-0.0076169892470829
1501822123.751353,-0.0012689719424733,0.0016165861152052,-0.0005138880762312,0.3612842261791229,0.0196848176419734,0.0020597171969711,42.30597038433151,-83.24483158012852,156.0211099052884,1294.5584924195505,-1777.4577203469644,-5.60015275163149,0.0214437667452859,0.1993507787402161,-0.0076169892470829
1501822123.759327,-0.0007960144285611,0.000932329785373,-0.0008112896989962,0.3726105690002441,-0.002155260881409,0.0040405592881143,42.30597038999019,-83.24483157169841,156.0211402460935,1294.5584924195505,-1777.4577203469644,-5.60015275163149,0.0228543897432936,0.2025326935704604,-0.0076088287855914
1501822123.761368,-0.0008023688895674,0.0008354344141808,-0.0011991044054163,0.3867862224578857,-0.0090745519846677,0.000490792794153,42.30597039567744,-83.24483156316262,156.02117065773112,1294.5584924195505,-1777.4577203469644,-5.60015275163149,0.0228543897432936,0.2025326935704604,-0.0076088287855914
1501822123.769381,-0.0007142176723185,-0.0007170901932404,-0.0005217364366707,0.3870269656181335,-0.0005662639741785,-0.0141588365659117,42.3059704013829,-83.24483155455037,156.02120059142348,1294.5584924195505,-1777.4577203469644,-5.60015275163149,0.0239863024228262,0.2051074288836277,-0.0077248409726204
1501822123.77143,5.8552613427564405e-05,-0.0013078468123074,-0.0002413399524602,0.3437964618206024,0.0017684707418084,-0.0352430306375026,42.305970407122416,-83.2448315458515,156.0212310971723,1294.5584924195505,-1777.4577203469644,-5.60015275163149,0.0239863024228262,0.2051074288836277,-0.0077248409726204
1501822123.779399,0.0004384823214376,-0.0026698093700544,0.0003351498831315,0.3124538362026214,0.0152772897854447,-0.0720514878630638,42.305970412879326,-83.24483153709005,156.02126240407537,1294.560082657688,-1777.4478768543745,-5.600546732048947,0.0246883857510227,0.2072888297071296,-0.0083613604798895
1501822123.781363,0.0005369245822068,-0.0027679172077507,0.0005277492900508,0.2646145224571228,0.0118914386257529,-0.0732344388961792,42.30597041865332,-83.24483152824686,156.0212956076996,1294.560082657688,-1777.4478768543745,-5.600546732048947,0.0246883857510227,0.2072888297071296,-0.0083613604798895
1501822123.789324,0.0005356173836298,-0.0027679016032912,0.0004307956622097,0.2404206544160843,0.0085373660549521,-0.0185787864029407,42.30597042444276,-83.24483151933032,156.02133006747525,1294.560082657688,-1777.4478768543745,-5.600546732048947,0.0257626164726171,0.2096602823975795,-0.0085641098630495
1501822123.791357,0.0011210451773012,-0.0019989237213552,3.513219711131273e-05,0.2196856141090393,-0.00306884245947,0.0082545466721057,42.30597043026343,-83.24483151033505,156.0213652582168,1294.560082657688,-1777.4478768543745,-5.600546732048947,0.0257626164726171,0.2096602823975795,-0.0085641098630495
1501822123.79932,0.0002511422350504,-0.0013100734386426,-0.0003409098142303,0.2923204302787781,-0.010610562749207,0.0319979637861251,42.30597043609385,-83.24483150124513,156.02140031706028,1294.560082657688,-1777.4478768543745,-5.600546732048947,0.0267276823144633,0.2135612973639452,-0.0085284061917751
1501822123.801362,-0.0002162059145425,-0.0001410366973477,-4.350793951841295e-05,0.3609755635261535,-0.0275911130011081,0.0219141691923141,42.305970441948446,-83.24483149203134,156.02143541973206,1294.560082657688,-1777.4478768543745,-5.600546732048947,0.0267276823144633,0.2135612973639452,-0.0085284061917751
1501822123.80937,-0.001377881187044,0.0010360348126592,-0.0009003938285726,0.4126929938793182,-0.0093368245288729,0.0199975632131099,42.30597044782397,-83.24483148267423,156.02147066200155,1294.560082657688,-1777.4478768543745,-5.600546732048947,0.027991574949068,0.2182931534347058,-0.0086326736906676
1501822123.811365,-0.0011692213453018,0.0015184651437555,-0.0002243337248445,0.4339068531990051,-0.001095000305213,0.0071980408392846,42.30597045373364,-83.24483147318396,156.02150603991657,1294.560082657688,-1777.4478768543745,-5.600546732048947,0.027991574949068,0.2182931534347058,-0.0086326736906676
1501822123.819334,-0.0005018052831566,0.0012198347998411,-0.0008152127251361,0.4020401239395141,-0.0288304165005683,-0.0189295038580894,42.3059704596878,-83.24483146358831,156.02154170390668,1294.560082657688,-1777.4478768543745,-5.600546732048947,0.0296390563013672,0.2209947008874622,-0.0089945544027223
1501822123.82136,-0.0001228123628659,-0.0003360552993854,-0.0001417692779578,0.3662804663181305,-0.0290324799716472,-0.0688043534755706,42.30597046566988,-83.24483145392162,156.02157786847934,1294.560082657688,-1777.4478768543745,-5.600546732048947,0.0296390563013672,0.2209947008874622,-0.0089945544027223
1501822123.829335,0.0008408585893258,-0.0014138659809392,0.0003299181629871,0.3233739137649536,0.0050775534473359,-0.0935518890619278,42.305970471686734,-83.24483144418768,156.02161577847886,1294.561566825626,-1777.4367312638929,-5.601003077182679,0.0307372836966967,0.2228222683195304,-0.0096631513810682
1501822123.831356,0.0012114462325188,-0.0026787512455035,0.00013077806559,0.2844238877296448,0.0031475536525249,-0.0701362565159797,42.305970477723584,-83.24483143439868,156.02165524522223,1294.561566825626,-1777.4367312638929,-5.601003077182679,0.0307372836966967,0.2228222683195304,-0.0096631513810682
1501822123.839327,0.0014891970293829,-0.0040395311152566,0.0003207610435246,0.3114708960056305,-0.0071620102971792,-0.0393716096878051,42.30597048377779,-83.24483142455713,156.02169552409504,1294.561566825626,-1777.4367312638929,-5.601003077182679,0.0317925876298825,0.225268927018054,-0.0097999139766486
1501822123.841364,0.0016885109702118,-0.0041388059064502,0.0008029133551672,0.3365479111671448,-0.0104192579165101,-0.0027770360466092,42.30597048985722,-83.24483141462548,156.02173645130216,1294.561566825626,-1777.4367312638929,-5.601003077182679,0.0317925876298825,0.225268927018054,-0.0097999139766486
1501822123.849331,0.0018082711658157,-0.0023947485219358,0.0009955125670308,0.3871269524097442,0.0025155679322779,0.0386665314435958,42.305970495973625,-83.24483140454991,156.02177804551397,1294.561566825626,-1777.4367312638929,-5.601003077182679,0.0330137469789601,0.230710472930836,-0.0097493245533015
1501822123.8514,0.0003796829299847,-5.095927211854692e-05,0.0009181803116732,0.3945889770984649,0.0067227222025394,0.0675638020038604,42.305970502105176,-83.24483139429631,156.02181954101354,1294.561566825626,-1777.4367312638929,-5.601003077182679,0.0330137469789601,0.230710472930836,-0.0097493245533015
1501822123.859339,0.0003838043603254,0.0012095907322456,0.0001425505574854,0.3861446678638458,-0.0133041180670261,0.0740808993577957,42.30597050827517,-83.24483138390343,156.021860129819,1294.561566825626,-1777.4367312638929,-5.601003077182679,0.0341729485121049,0.2349795870390484,-0.0095116418709525
1501822123.861365,-0.0006742035469029,0.0016097105302698,0.0004478007520003,0.3655695021152496,-0.0063851838931441,0.0194207411259412,42.30597051445652,-83.24483137338486,156.02189978793265,1294.561566825626,-1777.4367312638929,-5.601003077182679,0.0341729485121049,0.2349795870390484,-0.0095116418709525
1501822123.869345,-0.0026271701844373,0.0007595891337776,0.0001831021590033,0.3244417607784271,-0.0148891182616353,-0.055410549044609,42.30597052062691,-83.2448313627735,156.02193932979392,1294.561566825626,-1777.4367312638929,-5.601003077182679,0.0349613045835747,0.2370873789548786,-0.0101936730444294
1501822123.871364,-0.0006030621658011,-0.0006214009817498,0.0004464936834604,0.3089188933372497,0.0032682279124855,-0.1153188496828079,42.30597052684616,-83.24483135211814,156.02198069442622,1294.561566825626,-1777.4367312638929,-5.601003077182679,0.0349613045835747,0.2370873789548786,-0.0101936730444294
1501822123.879348,0.0001590522896742,-0.0017938482239629,0.0004360287477443,0.3100624978542328,0.023101644590497,-0.1672141104936599,42.3059705330899,-83.24483134140556,156.02202519989825,1294.56331999413,-1777.424753289392,-5.601522307951052,0.0360256617420452,0.2393597420899197,-0.0114949895203541
1501822123.881359,0.0008369279560118,-0.0027713824380597,0.0012025016262893,0.3653895556926727,0.0139583712443709,-0.1182125434279441,42.30597053935544,-83.24483133061982,156.02207297551172,1294.56331999413,-1777.424753289392,-5.601522307951052,0.0360256617420452,0.2393597420899197,-0.0114949895203541
1501822123.889359,0.0019881457211701,-0.0032695488262767,0.0007020355958703,0.3916915357112884,0.0262669585645198,-0.0462322682142257,42.30597054566153,-83.244831319745,156.02212286483922,1294.56331999413,-1777.424753289392,-5.601522307951052,0.0369730659260946,0.2428483481434866,-0.0114999795438697
1501822123.891374,0.0006252756340653,-0.0037386217400305,0.0007203489245352,0.41115802526474,0.0111206788569688,0.0386594161391258,42.3059705519655,-83.24483130875322,156.02217257364356,1294.56331999413,-1777.424753289392,-5.601522307951052,0.0369730659260946,0.2428483481434866,-0.0114999795438697
1501822123.899326,0.0008245951014736,-0.00315911372564,0.000620779339094,0.4081757068634033,-0.0016200136160477,0.0658660680055618,42.30597055830429,-83.24483129763118,156.02222149766885,1294.56331999413,-1777.424753289392,-5.601522307951052,0.0377206231085393,0.2471684041840307,-0.0111471489610864
1501822123.901368,-0.0012081158507474,-0.0027477143740946,0.0005512961268711,0.3797267079353332,-0.0047043124213814,0.0311573315411806,42.305970564639104,-83.24483128637105,156.02226932272393,1294.56331999413,-1777.424753289392,-5.601522307951052,0.0377206231085393,0.2471684041840307,-0.0111471489610864
1501822123.909328,-0.0014879230553009,-0.0016778173641452,0.0004582676057645,0.3214165866374969,0.0105485515668988,-0.0116916038095951,42.30597057099915,-83.24483127498303,156.02231759508837,1294.56331999413,-1777.424753289392,-5.601522307951052,0.0389594721618836,0.2505537587240791,-0.0118513695244962
1501822123.911371,-0.0010065468704633,-0.0012955118771745,-0.0001299947704865,0.2892228066921234,-0.0028611687012016,-0.0835882425308227,42.305970577392046,-83.24483126350324,156.0223674721251,1294.56331999413,-1777.424753289392,-5.601522307951052,0.0389594721618836,0.2505537587240791,-0.0118513695244962
1501822123.919384,-0.0016747072653273,-0.0006089966717907,7.306979158662278e-05,0.2684698104858398,-0.0036183206830173,-0.1303068250417709,42.30597058379575,-83.24483125192215,156.02242042021606,1294.56331999413,-1777.424753289392,-5.601522307951052,0.0399419955810561,0.2531641404400166,-0.0131370420939935
1501822123.921373,-0.0004168289882512,-0.0013993053297312,0.0005408333367682,0.3015827536582947,0.0109335677698254,-0.1142672225832939,42.30597059023309,-83.24483124028532,156.02247629890053,1294.56331999413,-1777.424753289392,-5.601522307951052,0.0399419955810561,0.2531641404400166,-0.0131370420939935
1501822123.929358,-0.0002208760204363,-0.0011106654809452,0.0004412634912527,0.3587457239627838,0.0142298936843872,-0.0695602968335151,42.30597059669543,-83.2448312285475,156.0225347980289,1294.5657252696155,-1777.4124434135413,-5.602152569957965,0.0413889705858697,0.2564306455853766,-0.0135255581874424
1501822123.931366,0.0005386222498739,-0.002283082489518,0.0002368912023265,0.4276477694511413,0.001862839795649,-0.0051771728321909,42.305970603190616,-83.24483121672915,156.022593883705,1294.5657252696155,-1777.4124434135413,-5.602152569957965,0.0413889705858697,0.2564306455853766,-0.0135255581874424
1501822123.939344,0.0005247871085053,-0.0032526120059965,4.298377597061152e-05,0.4661369323730469,-0.0074055381119251,0.0385587289929389,42.30597060971287,-83.24483120480507,156.02265223525347,1294.5657252696155,-1777.4124434135413,-5.602152569957965,0.0423246803676403,0.260460767115624,-0.0131225611545715
1501822123.941358,-0.0005461194124465,-0.0036280950932314,5.737328201796319e-05,0.4663139283657074,0.0078278938308358,0.0254401862621307,42.30597061624722,-83.244831192747,156.022709643315,1294.5657252696155,-1777.4124434135413,-5.602152569957965,0.0423246803676403,0.260460767115624,-0.0131225611545715
1501822123.949357,-0.0003548401102926,-0.0036303085858132,-0.0001391497768451,0.4151598513126373,0.0236644074320793,0.0078266784548759,42.30597062281304,-83.24483118056251,156.0227668509426,1294.5657252696155,-1777.4124434135413,-5.602152569957965,0.0437969478793098,0.2640620604025304,-0.0133881506245667
1501822123.951363,0.0006232309947391,-0.0033507195836185,0.0002355842475692,0.3408309519290924,0.0172316376119852,-0.033284492790699,42.30597062941751,-83.24483116826698,156.02282481637863,1294.5657252696155,-1777.4124434135413,-5.602152569957965,0.0437969478793098,0.2640620604025304,-0.0133881506245667
1501822123.959349,-6.381073924326105e-05,-0.0037306444802535,-4.6120061022171086e-05,0.2954423725605011,-0.0182566735893487,-0.0549526773393154,42.3059706360312,-83.24483115588436,156.02288372951196,1294.5657252696155,-1777.4124434135413,-5.602152569957965,0.0447937044162722,0.2668986030539311,-0.0140393796484832
1501822123.961371,0.0005311455356451,-0.0031557150743583,0.0004308002460197,0.2935781180858612,-0.0035583013668656,-0.0588871613144874,42.305970642678766,-83.24483114340785,156.02294459014138,1294.5657252696155,-1777.4124434135413,-5.602152569957965,0.0447937044162722,0.2668986030539311,-0.0140393796484832
1501822123.969341,-0.0001435543956167,-0.0024691237972344,0.0001490959618103,0.330940306186676,0.0347643047571182,-0.046255923807621,42.30597064933766,-83.24483113081988,156.0230071693854,1294.5657252696155,-1777.4124434135413,-5.602152569957965,0.0459268619255788,0.2707895662211072,-0.0143631656557762
1501822123.971384,0.0005291002786424,-0.0020890314127339,-0.0006356903104181,0.3997973501682281,0.0190399847924709,0.018434377387166,42.30597065603291,-83.24483111812269,156.02307054923415,1294.5657252696155,-1777.4124434135413,-5.602152569957965,0.0459268619255788,0.2707895662211072,-0.0143631656557762
1501822123.979337,0.0001416836809956,-0.0022784859358943,-0.0004365504568407,0.4561018645763397,0.0092403357848525,0.0518590845167636,42.305970662746674,-83.24483110530157,156.02313307398538,1294.5680095331224,-1777.3987440006274,-5.602839399613101,0.0465834007920266,0.275318635859939,-0.0138761620207155
1501822123.981373,-0.0010149563087502,-0.0023620699228997,0.0001608694940029,0.4632974565029144,0.0197904109954834,0.0471899509429931,42.30597066946692,-83.24483109233788,156.02319434168717,1294.5680095331224,-1777.3987440006274,-5.602839399613101,0.0465834007920266,0.275318635859939,-0.0138761620207155
1501822123.98934,-0.0001482209254885,-0.0020811926425352,-0.0005295789779472,0.4119066298007965,0.0356387235224247,0.0176749099045991,42.30597067623109,-83.24483107924742,156.02325525638545,1294.5680095331224,-1777.3987440006274,-5.602839399613101,0.0476127806631962,0.2787363549167286,-0.0140533767869134
1501822123.991417,-0.0007293515923578,-0.0030441577530084,0.0003508532684151,0.3579826951026916,0.0069295577704906,-0.051795408129692,42.30597068299858,-83.24483106605936,156.02331614755587,1294.5680095331224,-1777.3987440006274,-5.602839399613101,0.0476127806631962,0.2787363549167286,-0.0140533767869134
1501822123.999342,-0.0014188231276147,-0.0035210243140655,-2.780417631427699e-05,0.3224681317806244,-0.0204990562051534,-0.0717638134956359,42.3059706897785,-83.24483105278149,156.02337838963726,1294.5680095331224,-1777.3987440006274,-5.602839399613101,0.0489726676003933,0.2814335823388026,-0.014820109810653
1501822124.001375,-0.0001674785352643,-0.0036324739646448,-0.0006265312078888,0.3307192921638489,-0.0038150593172758,-0.0758339837193489,42.30597069660591,-83.24483103942411,156.02344275236564,1294.5680095331224,-1777.3987440006274,-5.602839399613101,0.0489726676003933,0.2814335823388026,-0.014820109810653
1501822124.009364,-5.875838504639733e-05,-0.0036337319441558,0.0002447442603586,0.3747176229953766,0.0158167909830808,-0.0346060059964656,42.30597070345456,-83.244831025963,156.02350865253229,1294.5680095331224,-1777.3987440006274,-5.602839399613101,0.0505030970227393,0.2853366942495765,-0.0151268770867149
1501822124.011375,0.0008113432743072,-0.0030619861080754,-0.0004457044879206,0.4187882542610168,0.0174849219620227,0.0069225658662617,42.30597071034799,-83.24483101238133,156.02357550027676,1294.5680095331224,-1777.3987440006274,-5.602839399613101,0.0505030970227393,0.2853366942495765,-0.0151268770867149
1501822124.019337,-0.0009206202639737,-0.0023631598943966,-3.4343574547731785e-05,0.4407444596290588,0.0174922011792659,0.0420361906290054,42.30597071724016,-83.24483099864365,156.02364204015248,1294.5680095331224,-1777.3987440006274,-5.602839399613101,0.0508307730873591,0.2901070300461997,-0.0147157396459403
1501822124.021395,-0.0016029883891863,-0.0024522327500354,-0.0002190935197753,0.4350671768188476,0.0299939811229705,0.0540225692093372,42.30597072414658,-83.24483098477482,156.0237074163696,1294.5680095331224,-1777.3987440006274,-5.602839399613101,0.0508307730873591,0.2901070300461997,-0.0147157396459403
1501822124.029378,-0.0022778804828653,-0.0023474540058976,-1.6028534065479266e-05,0.3752493262290954,0.0201992411166429,0.0316381826996803,42.30597073106426,-83.2448309707786,156.02377184393077,1294.5709579941904,-1777.3846753549356,-5.603579839077572,0.0520401763212684,0.2929501922803545,-0.0147048304054487
1501822124.031367,-0.0011393771662989,-0.003718195502529,-0.0007104010815962,0.3456425666809082,-0.0188818741589784,-0.0387702919542789,42.305970738021706,-83.24483095672078,156.0238359544149,1294.5709579941904,-1777.3846753549356,-5.603579839077572,0.0520401763212684,0.2929501922803545,-0.0147048304054487
1501822124.039349,-0.0018137050287294,-0.0032255468511956,-0.0007981974274283,0.3416163921356201,-0.0192280281335115,-0.0771638005971908,42.30597074499821,-83.2448309425496,156.02390184666712,1294.5709579941904,-1777.3846753549356,-5.603579839077572,0.0532278166350509,0.2969800020435345,-0.0157501328025271
1501822124.041379,-0.0016035441680193,-0.0021613199816843,-0.0005099517212821,0.3778836727142334,0.0037737330421805,-0.0861873403191566,42.3059707520091,-83.24483092825184,156.02397053930315,1294.5709579941904,-1777.3846753549356,-5.603579839077572,0.0532278166350509,0.2969800020435345,-0.0157501328025271
1501822124.049341,-0.0006331357953773,-0.0019786115264453,-0.0006199861124022,0.4089896380901336,0.0100974328815937,-0.0328853316605091,42.3059707590636,-83.24483091384359,156.0240411245119,1294.5709579941904,-1777.3846753549356,-5.603579839077572,0.0550730980963299,0.3007692461438649,-0.015872343737042
1501822124.051366,-0.000143545032941,-0.0024691219767141,0.0001491032113821,0.4508734941482544,-0.013283185660839,0.0285053811967372,42.30597076615095,-83.24483089932437,156.0241117528045,1294.5709579941904,-1777.3846753549356,-5.603579839077572,0.0550730980963299,0.3007692461438649,-0.015872343737042
1501822124.059356,-0.0011212424436769,-0.0029426528244762,-3.172281776364464e-05,0.4631297588348388,-0.0064583062194287,0.0606969706714153,42.30597077325387,-83.24483088467831,156.0241810845897,1294.5709579941904,-1777.3846753549356,-5.603579839077572,0.0556109915597763,0.3050463423903641,-0.0151687918076768
1501822124.061379,-0.0024856067878171,-0.0033147403813213,-0.0002073158751573,0.4503395855426788,0.0024211220443248,0.0657594352960586,42.30597078036467,-83.24483086989943,156.02424864881596,1294.5709579941904,-1777.3846753549356,-5.603579839077572,0.0556109915597763,0.3050463423903641,-0.0151687918076768
1501822124.069348,-0.0012372561385891,-0.0039110010833697,-0.0006121351837287,0.4073334336280823,-0.0026334014255553,0.0129359057173132,42.305970787525375,-83.24483085502126,156.0243152798922,1294.5709579941904,-1777.3846753549356,-5.603579839077572,0.057295533213007,0.308809274358111,-0.0154195432099293
1501822124.071391,-0.0019005559393708,-0.0030306039795504,-0.0002151629352252,0.3927784562110901,-0.0297195520251989,-0.0356958620250225,42.305970794709104,-83.24483084000278,156.024382754109,1294.5709579941904,-1777.3846753549356,-5.603579839077572,0.057295533213007,0.308809274358111,-0.0154195432099293
1501822124.079349,-0.0021988730237605,-0.0032210899574846,-0.0005990525999294,0.395304799079895,-0.037179235368967,-0.057393804192543,42.30597080192248,-83.24483082487727,156.0244514457589,1294.5738387256065,-1777.369084284285,-5.604345301767851,0.0591862505699755,0.3123977084749736,-0.0162074270292375
1501822124.081369,-0.0011216109689957,-0.0027487112389831,-0.0002256261967129,0.3870619535446167,-0.0334760844707489,-0.0707029029726982,42.30597080918978,-83.24483080963864,156.0245223320997,1294.5738387256065,-1777.369084284285,-5.604345301767851,0.0591862505699755,0.3123977084749736,-0.0162074270292375
1501822124.089408,-0.0018971882369337,-0.0027397360740203,-0.0002151608708853,0.3880888223648071,-0.02045588940382,-0.0157725401222705,42.30597081647621,-83.24483079428481,156.02459438100925,1294.5738387256065,-1777.369084284285,-5.604345301767851,0.0606240114786863,0.3161780940100112,-0.016348064727697
1501822124.091386,-0.0015159389117976,-0.0027441482349474,-0.000705161104092,0.4234497547149658,-0.0325354300439357,0.0038985146675258,42.30597082380499,-83.24483077882094,156.02466682942057,1294.5738387256065,-1777.369084284285,-5.604345301767851,0.0606240114786863,0.3161780940100112,-0.016348064727697
1501822124.099356,-0.0016175652950396,-0.0037126626813347,-0.000219083815752,0.4334589540958404,-0.0086184032261371,0.010486613959074,42.30597083115903,-83.2448307632557,156.0247387607342,1294.5738387256065,-1777.369084284285,-5.604345301767851,0.0614377545966156,0.3202264420912583,-0.0161720410233029
1501822124.101422,-0.002484107199258,-0.0034117278188246,-1.3402502648984094e-05,0.4381071031093597,0.023558784276247,0.0208135191351175,42.30597083852783,-83.24483074755001,156.0248105229338,1294.5738387256065,-1777.369084284285,-5.604345301767851,0.0614377545966156,0.3202264420912583,-0.0161720410233029
1501822124.109344,-0.0013278437971351,-0.0038129845317615,-0.0002230063217433,0.4262208342552185,0.0047110081650316,-0.0208338573575019,42.30597084594216,-83.24483073173703,156.02488241563128,1294.5738387256065,-1777.369084284285,-5.604345301767851,0.062998492059324,0.3237740537261619,-0.0165273986943072
1501822124.111379,-0.0020150716061699,-0.0040959388957242,-0.000601663811173,0.4056123197078705,-0.0256659965962171,-0.0440542697906494,42.30597085337562,-83.2448307158077,156.02495506299593,1294.5738387256065,-1777.369084284285,-5.604345301767851,0.062998492059324,0.3237740537261619,-0.0165273986943072
1501822124.119357,-0.0020938859600882,-0.0033192750372555,7.83212936343494e-05,0.4118194878101349,-0.0191253814846277,-0.05419896915555,42.30597086084213,-83.24483069974227,156.02502952657343,1294.5738387256065,-1777.369084284285,-5.604345301767851,0.0644535712596719,0.3278689461317287,-0.0172113822272178
1501822124.121381,-0.0019995538814451,-0.0033203668292727,-0.0001168934369538,0.3972351253032684,-0.0074551282450556,-0.0488042458891868,42.3059708683417,-83.24483068356294,156.02510547629657,1294.5738387256065,-1777.369084284285,-5.604345301767851,0.0644535712596719,0.3278689461317287,-0.0172113822272178
1501822124.129345,-0.0017025434104653,-0.0031298657670277,0.0001700441359731,0.4262920916080475,-0.0332046411931514,-0.0110421394929289,42.30597087587904,-83.24483066726388,156.0251825059748,1294.5770660342228,-1777.352529666563,-5.605180260242975,0.0660171413950058,0.3315759826401214,-0.0173552264423077
1501822124.13137,-0.0019063488348904,-0.0040971976554582,0.0002696147617116,0.4390384554862976,-0.0264234617352485,-0.0145648512989282,42.30597088344359,-83.24483065086352,156.02525951535853,1294.5770660342228,-1777.352529666563,-5.605180260242975,0.0660171413950058,0.3315759826401214,-0.0173552264423077
1501822124.139409,-0.0018062206097987,-0.0037104803976719,0.0001713538377656,0.4681489765644073,-0.0030412247870117,0.0055038980208337,42.30597089104703,-83.24483063432591,156.0253370657088,1294.5770660342228,-1777.352529666563,-5.605180260242975,0.0671253669361953,0.3361560092793411,-0.0174576309040295
1501822124.141383,-0.0027805518785434,-0.0038931433399039,-9.471620435771244e-06,0.4574328660964966,0.0207547880709171,-0.0089905709028244,42.30597089866375,-83.24483061765144,156.025414621538,1294.5770660342228,-1777.352529666563,-5.605180260242975,0.0671253669361953,0.3361560092793411,-0.0174576309040295
1501822124.149374,-0.0029849154224704,-0.0045695620698718,-0.0002007616120507,0.4374645352363586,0.0058880965225398,-0.0224497821182012,42.3059709063022,-83.24483060086146,156.02549236715285,1294.5770660342228,-1777.352529666563,-5.605180260242975,0.0685010301702904,0.3400801429435727,-0.0179349423887586
1501822124.151382,-0.0023979989308522,-0.0045763541709488,0.0001792057579724,0.4517566263675689,0.0086589008569717,-0.068106397986412,42.30597091397823,-83.24483058394625,156.02557150639385,1294.5770660342228,-1777.352529666563,-5.605180260242975,0.0685010301702904,0.3400801429435727,-0.0179349423887586
1501822124.159367,-0.0021926972988342,-0.0037060089397987,0.0002735441596725,0.4502066671848297,0.0067401984706521,-0.05922332406044,42.30597092169148,-83.24483056688163,156.02565291903673,1294.5770660342228,-1777.352529666563,-5.605180260242975,0.0700405939541523,0.3444160572670947,-0.0184634025615678
1501822124.161376,-0.0017120761747813,-0.0042933849827495,0.0004609118139382,0.4496425688266754,0.0249769184738397,-0.0192238129675388,42.30597092943665,-83.2448305497026,156.02573524740248,1294.5770660342228,-1777.352529666563,-5.605180260242975,0.0700405939541523,0.3444160572670947,-0.0184634025615678
1501822124.169354,-0.0026938834100411,-0.0046698997848324,-0.0001077284746249,0.4570079147815704,0.003400147659704,0.0304288882762193,42.30597093719373,-83.24483053239456,156.02581728892696,1294.5770660342228,-1777.352529666563,-5.605180260242975,0.0710896912513921,0.3486084895114386,-0.0182265518418973
1501822124.171378,-0.002890956550484,-0.0050554953420542,-8.157263719284332e-06,0.4683704376220703,-0.017318207770586,0.0122745689004659,42.305970944978725,-83.24483051496087,156.0258987653173,1294.5770660342228,-1777.352529666563,-5.605180260242975,0.0710896912513921,0.3486084895114386,-0.0182265518418973
1501822124.179359,-0.0038662235666508,-0.0054320860858401,-9.202853532614418e-05,0.4621540307998657,0.0082046948373317,0.0074878917075693,42.30597095277864,-83.24483049739503,156.0259798599365,1294.5810145014116,-1777.3354203585848,-5.606076516384198,0.0722384573082057,0.3531838425472306,-0.0183693119676678
1501822124.181381,-0.0033684002164688,-0.0047590647067823,0.0002892473499004,0.455822616815567,0.0215431787073612,-0.0156046282500028,42.30597096061796,-83.24483047968263,156.02606166846516,1294.5810145014116,-1777.3354203585848,-5.606076516384198,0.0722384573082057,0.3531838425472306,-0.0183693119676678
1501822124.199358,-0.0028851542922887,-0.0046676881127709,8.880272781545613e-05,0.4516525268554687,0.0141854854300618,0.0110373357310891,42.30597098433649,-83.24483042579088,156.0263126168729,1294.5810145014116,-1777.3354203585848,-5.606076516384198,0.0752462741648144,0.361527413211558,-0.018611956569094
1501822124.201384,-0.0025080202532374,-0.0052538670336028,-0.0002072897539423,0.4625173211097717,0.0142454151064157,0.0505766421556472,42.30597099230606,-83.24483040757045,156.0263963259793,1294.5810145014116,-1777.3354203585848,-5.606076516384198,0.0752462741648144,0.361527413211558,-0.018611956569094
1501822124.209359,-0.003581542569243,-0.0056293202122903,-0.0003868067883728,0.4527854919433594,0.0141866765916347,0.0327095501124858,42.30597100028491,-83.24483038921777,156.02647883101474,1294.5810145014116,-1777.3354203585848,-5.606076516384198,0.0760303801235748,0.3661617168275202,-0.0185783671856217
1501822124.211428,-0.00405412726661,-0.0051390072884715,0.0001045039756132,0.4672137796878814,0.0034464634954929,-0.0160008762031793,42.305971008286505,-83.24483037071532,156.02656150703277,1294.5810145014116,-1777.3354203585848,-5.606076516384198,0.0760303801235748,0.3661617168275202,-0.0185783671856217
1501822124.219364,-0.0025987958154833,-0.0050588799493224,8.488371657290733e-05,0.4793714582920074,0.0404143817722797,0.0204802341759204,42.30597101634184,-83.24483035208358,156.026644561274,1294.5810145014116,-1777.3354203585848,-5.606076516384198,0.0782460329257327,0.3706663609648347,-0.0185724815324342
1501822124.22139,-0.0017283218475422,-0.004681077259181,-0.0004116570201831,0.4818979203701019,0.0253485664725303,0.0225923620164394,42.30597102444275,-83.24483033330947,156.02672758946835,1294.5810145014116,-1777.3354203585848,-5.606076516384198,0.0782460329257327,0.3706663609648347,-0.0185724815324342
1501822124.229358,-0.0020049603065175,-0.0045809065119372,0.0005618052102039,0.4705998599529266,0.022025303915143,0.030993890017271,42.30597103256376,-83.24483031438852,156.02681013855553,1294.5848935700303,-1777.3166985353723,-5.606960025670708,0.0790625930578813,0.3751057157530315,-0.0183512547614717
1501822124.231407,-0.002595054386241,-0.0049619544095084,0.0002787937274174,0.4441505670547485,0.0255653243511915,0.0176251716911792,42.30597104070056,-83.24483029533864,156.02689197544382,1294.5848935700303,-1777.3166985353723,-5.606960025670708,0.0790625930578813,0.3751057157530315,-0.0183512547614717
1501822124.239368,-0.0022024043129481,-0.0047725604836658,0.0004674698806318,0.4612163007259369,0.063717097043991,0.0106977075338363,42.30597104886644,-83.2448302761521,156.0269737754726,1294.5848935700303,-1777.3166985353723,-5.606960025670708,0.0800877201763638,0.3797350035335356,-0.0182201016901957
1501822124.241391,-0.0026015921346279,-0.0049618789879541,-0.0002059727050502,0.4847479164600372,0.0483669526875019,0.030530396848917,42.30597105704816,-83.24483025682727,156.02705507488474,1294.5848935700303,-1777.3166985353723,-5.606960025670708,0.0800877201763638,0.3797350035335356,-0.0182201016901957
1501822124.251395,-0.0028786014595909,-0.0046677666552171,0.0005735835212623,0.4811457991600036,0.0216023921966552,0.0241861157119274,42.305971073495485,-83.24483021772838,156.02721636371683,1294.5848935700303,-1777.3166985353723,-5.606960025670708,0.0813492016417315,0.3845841100047586,-0.0180557911444445
1501822124.25935,-0.0025916768009796,-0.003992304218543,-0.0003029230331983,0.4839264154434204,0.0583751834928989,0.0256926249712705,42.30597108176629,-83.2448301979526,156.02729666549305,1294.5848935700303,-1777.3166985353723,-5.606960025670708,0.0829621440880354,0.389254373654251,-0.0180069742926083
1501822124.261399,-0.0017230753681799,-0.0040023558311378,-0.0006055563435983,0.4562082588672638,0.0515938624739646,0.0211917757987976,42.30597109007428,-83.2448301780438,156.02737666373585,1294.5848935700303,-1777.3166985353723,-5.606960025670708,0.0829621440880354,0.389254373654251,-0.0180069742926083
1501822124.26936,-0.0007465040792722,-0.004304564017544,0.0001569928748754,0.4721016883850097,0.0464911349117755,-0.0110626071691513,42.305971098416165,-83.24483015800875,156.02745666633254,1294.5848935700303,-1777.3166985353723,-5.606960025670708,0.0844010847200152,0.3938996755143533,-0.0181719762641112
1501822124.271382,-0.0010474310745339,-0.0038162359809751,-0.0010025269016187,0.4888691008090973,0.0392295382916927,0.002452511806041,42.30597110678443,-83.24483013782098,156.02753718144024,1294.5848935700303,-1777.3166985353723,-5.606960025670708,0.0844010847200152,0.3938996755143533,-0.0181719762641112
1501822124.279357,-0.0007550949194009,-0.0039165880000237,-0.0008125431922251,0.4781679511070251,0.0612916424870491,0.0358740277588367,42.30597111517943,-83.24483011749307,156.02761737346776,1294.5895329186894,-1777.2973067095113,-5.607829401802925,0.0851283961633765,0.3982855693487991,-0.0177776886850511
1501822124.281396,-0.0014397124274522,-0.0048783555982665,-0.0004155710087402,0.4833179116249084,0.0413261540234088,0.0324491485953331,42.30597112357851,-83.24483009703762,156.02769626719564,1294.5895329186894,-1777.2973067095113,-5.607829401802925,0.0851283961633765,0.3982855693487991,-0.0177776886850511
1501822124.289401,-0.0020131686423324,-0.0043868744205789,-0.0002138139297004,0.4989456236362457,0.0035096805077046,-0.0144537007436156,42.30597113199904,-83.24483007642218,156.0277753059463,1294.5895329186894,-1777.2973067095113,-5.607829401802925,0.0866205039589722,0.4033729773344231,-0.0181218662879428
1501822124.291396,-0.0017213900865526,-0.0041963132811647,-0.0003146910388115,0.5082967281341553,0.0118647096678614,-0.022504448890686,42.305971140459306,-83.244830055659,156.02785515454073,1294.5895329186894,-1777.2973067095113,-5.607829401802925,0.0866205039589722,0.4033729773344231,-0.0181218662879428
1501822124.301401,-0.0017208188332973,-0.0031296603083108,-0.001187272974177,0.4901545643806457,0.0222915764898061,0.0241502206772565,42.305971157477686,-83.2448300136614,156.02801611218177,1294.5895329186894,-1777.2973067095113,-5.607829401802925,0.0880938666879219,0.4084834154620483,-0.0181480061409889
1501822124.309355,-0.0003555289821615,-0.0039212121215258,5.481228950107543e-05,0.4918446540832519,0.0103521617129445,0.0323709808290004,42.30597116604853,-83.24482999246676,156.0280958602018,1294.5895329186894,-1777.2973067095113,-5.607829401802925,0.0891463737683449,0.4104125247462262,-0.0179868524023048
1501822124.311467,-0.0007578967651249,-0.0044983693240907,-0.0005216772372524,0.5035344958305359,0.0339883901178836,0.0252026673406362,42.30597117464172,-83.2448299711385,156.02817472344793,1294.5895329186894,-1777.2973067095113,-5.607829401802925,0.0893218310064403,0.4154223180598501,-0.0177395640368938
1501822124.319969,-0.0027894914133236,-0.0046687975898422,-9.437473489604353e-06,0.5191158056259155,0.0605314373970031,0.0091327782720327,42.3059711832226,-83.24482994964549,156.02825295866552,1294.5895329186894,-1777.2973067095113,-5.607829401802925,0.0906462011516474,0.4180133440201468,-0.0178372374918549
1501822124.321417,-0.0017195131301476,-0.0038084587183543,-0.0005085939707581,0.5090391039848328,0.0099030807614326,0.0156827084720134,42.30597119185688,-83.24482992799062,156.0283316876783,1294.5895329186894,-1777.2973067095113,-5.607829401802925,0.0906462011516474,0.4180133440201468,-0.0178372374918549
1501822124.329356,-0.0008454933738752,-0.0039155419810877,-0.0003264590119155,0.5063941478729248,-0.0371065735816955,0.0041206157766282,42.30597120054314,-83.24482990619917,156.02841045029115,1294.594067359669,-1777.2762130746164,-5.60867727015036,0.0921622934398562,0.4228011074085478,-0.0177251463855306
1501822124.331395,-0.0024963972715698,-0.0037994682090063,-0.000595081655095,0.4985238313674927,-0.0038686741609126,0.0344539619982242,42.30597120924224,-83.24482988425044,156.0284887842778,1294.594067359669,-1777.2762130746164,-5.60867727015036,0.0921622934398562,0.4228011074085478,-0.0177251463855306
1501822124.339367,-0.0020253047506436,-0.004192796296065,-0.0012802971390386,0.4978848695755005,0.0183212533593177,0.020740145817399,42.30597121798332,-83.24482986217198,156.02856649298516,1294.594067359669,-1777.2762130746164,-5.60867727015036,0.0938760160776905,0.4275005518347052,-0.0177101397131755
1501822124.341414,-0.001517953707595,-0.0037138223527507,-2.643855447826509e-05,0.4946106076240539,0.0249986909329891,0.0076709929853677,42.30597122676068,-83.24482983993754,156.02864434948492,1294.594067359669,-1777.2762130746164,-5.60867727015036,0.0938760160776905,0.4275005518347052,-0.0177101397131755
1501822124.349448,-0.0020120310772339,-0.0036111356464849,-0.0007955270492757,0.521050751209259,0.0023175796959549,0.0054869623854756,42.30597123556567,-83.24482981755153,156.02872223545222,1294.594067359669,-1777.2762130746164,-5.60867727015036,0.0949970537630892,0.4325093784144846,-0.0175888471520969
1501822124.35146,-0.0024001973391231,-0.0040914892840943,-0.0004024788021909,0.532958984375,0.0429601892828941,0.0239567216485738,42.3059712443917,-83.24482979501849,156.0287996410178,1294.594067359669,-1777.2762130746164,-5.60867727015036,0.0949970537630892,0.4325093784144846,-0.0175888471520969
1501822124.359422,-0.0015235554484855,-0.0035198199098655,-0.0006081582571848,0.5327951312065125,0.0566224530339241,0.0325168669223785,42.30597125326334,-83.24482977232113,156.0288769574458,1294.594067359669,-1777.2762130746164,-5.60867727015036,0.0968030926944043,0.4377173727723827,-0.0175808321144052
1501822124.361407,-0.0018244887505496,-0.0037102754591036,-0.0011859555676827,0.5431339740753174,-0.0040131201967597,0.000328335649101,42.30597126216302,-83.24482974946999,156.02895392991857,1294.594067359669,-1777.2762130746164,-5.60867727015036,0.0968030926944043,0.4377173727723827,-0.0175808321144052
1501822124.369371,-0.0023152063500184,-0.003995503912966,-0.0013733215639745,0.5573450326919556,-0.0201593022793531,0.01234922837466,42.30597127109437,-83.24482972646479,156.02903075772565,1294.5974777079327,-1777.2607090232327,-5.609262420418226,0.0988073292197081,0.4429288814898646,-0.0174952304504668
1501822124.371399,-0.0015287859332768,-0.0035197595726221,-0.0009959706879546,0.5433041453361511,-0.0060327826067805,0.0326937697827816,42.305971280081536,-83.24482970329599,156.02910761441652,1294.5974777079327,-1777.2607090232327,-5.609262420418226,0.0988073292197081,0.4429288814898646,-0.0174952304504668
1501822124.379355,-0.0014320242402877,-0.0034239102203658,-0.0010942319044842,0.5335119366645813,-0.0011053906055167,0.0142163541167974,42.3059712891097,-83.24482967997108,156.02918417221102,1294.5974777079327,-1777.2607090232327,-5.609262420418226,0.1009432235993457,0.4477799544376054,-0.0174511661377447
1501822124.381395,-0.0006532716598947,-0.0037238292325616,-0.0006199277257162,0.5382808446884155,-0.0301854498684406,0.0172054041177034,42.30597129818841,-83.24482965650459,156.02926050924353,1294.5974777079327,-1777.2607090232327,-5.609262420418226,0.1009432235993457,0.4477799544376054,-0.0174511661377447
1501822124.389438,-0.0006510268283567,-0.0035299167753929,-0.0006199273356047,0.5546591281890869,-0.0181976035237312,0.0090575153008103,42.30597130731152,-83.24482963287834,156.029336858831,1294.5974777079327,-1777.2607090232327,-5.609262420418226,0.1024478513968825,0.4527614492916844,-0.0173207382197368
1501822124.391522,-0.0010489129130203,-0.004398033169576,-0.0006146943801073,0.5408320426940918,0.0206733215600252,0.0208524763584136,42.30597131646098,-83.24482960911111,156.02941253866442,1294.5974777079327,-1777.2607090232327,-5.609262420418226,0.1024478513968825,0.4527614492916844,-0.0173207382197368
1501822124.399411,-0.0010393779380726,-0.0039132985799585,-0.000323832488796,0.5302994251251221,0.0543171465396881,0.0341321341693401,42.30597132564151,-83.24482958517397,156.0294879816724,1294.5974777079327,-1777.2607090232327,-5.609262420418226,0.1030790733554905,0.4555545454040697,-0.01724284127528
1501822124.409572,-0.0003644840238733,-0.0040180768039477,-0.0005268960186991,0.5420456528663635,0.0154082654044032,0.0507652647793293,42.30597134413285,-83.24482953684047,156.02963761345558,1294.5974777079327,-1777.2607090232327,-5.609262420418226,0.1055927239801785,0.4630235808707478,-0.0167655773386727
1501822124.411449,-0.0004670403028651,-0.0045017346858588,-0.0005255873897133,0.5457711219787598,0.0339615084230899,0.045840036123991,42.30597135342014,-83.24482951244944,156.0297106948255,1294.5974777079327,-1777.2607090232327,-5.609262420418226,0.1055927239801785,0.4630235808707478,-0.0167655773386727
1501822124.419371,0.001289788681574,-0.0038432813701273,-0.0002582718800922,0.5554527640342712,0.0036990216467529,0.0289241038262844,42.305971362774685,-83.24482948789515,156.02978364554068,1294.6048156929382,-1777.2307538610848,-5.610271491712532,0.1071910700107816,0.4656982504420331,-0.0167993518489071
1501822124.449408,0.0015847497668713,-0.003264877111173,-0.000456103137193,0.5810854434967041,0.0698387697339057,0.0606589615345001,42.30597141029445,-83.24482932897516,156.0302416351874,1294.6048156929382,-1777.2307538610848,-5.610271491712532,0.112341201195635,0.4854868487693119,-0.0151045699515089
1501822124.451401,0.0019719754699634,-0.0036572333004785,-0.000170474802801,0.5847800970077515,0.066231682896614,0.0755647718906402,42.30597141833293,-83.24482930190193,156.03031333179686,1294.6048156929382,-1777.2307538610848,-5.610271491712532,0.112341201195635,0.4854868487693119,-0.0151045699515089
1501822124.459368,0.0030219494862306,-0.0039602895892592,-0.0011544015300288,0.5977180004119873,0.0378493592143058,0.0720271095633506,42.30597142642227,-83.24482927467105,156.03038338510822,1294.6048156929382,-1777.2307538610848,-5.610271491712532,0.1139151272330862,0.4913229664307353,-0.0146126705421244
1501822124.461441,0.0020672439462144,-0.0034643954704215,-0.000462644916732,0.5928560495376587,0.0499103367328643,0.0507365725934505,42.3059714345276,-83.24482924724362,156.03045223789783,1294.6048156929382,-1777.2307538610848,-5.610271491712532,0.1139151272330862,0.4913229664307353,-0.0146126705421244
1501822124.469355,0.0033309245465043,-0.0031881109726029,-0.0004796506241991,0.5900477766990662,0.0620098449289798,0.0922824144363403,42.30597144268589,-83.24482921964348,156.03051982901778,1294.6048156929382,-1777.2307538610848,-5.610271491712532,0.1153796241869307,0.4978172542455649,-0.0138873170590698
1501822124.471419,0.0017926751587191,-0.0017157733913883,-0.0007495826440782,0.5924403667449951,0.0599345266819,0.1069059297442436,42.30597145085568,-83.24482919182209,156.03058570001014,1294.6048156929382,-1777.2307538610848,-5.610271491712532,0.1153796241869307,0.4978172542455649,-0.0138873170590698
1501822124.479381,0.0026494980854046,-0.0024044711405092,-0.0013430781708825,0.5919804573059082,0.0335184559226036,0.0870670452713966,42.30597145907067,-83.24482916384953,156.0306491147486,1294.609980982796,-1777.2082055072394,-5.610835656295758,0.1167829157564969,0.5035733131872694,-0.0130618286370926
1501822124.48143,0.0017988376198548,-0.0022006880824761,0.0001230000308735,0.6216195821762085,0.0534066259860992,0.0869788080453872,42.3059714672998,-83.24482913568237,156.0307105427838,1294.609980982796,-1777.2082055072394,-5.610835656295758,0.1167829157564969,0.5035733131872694,-0.0130618286370926
1501822124.489387,0.0017007747750167,-0.001617738374503,-0.0004574143344128,0.6188287138938904,0.0788545832037925,0.0787810906767845,42.30597147556232,-83.24482910731747,156.03077040810533,1294.609980982796,-1777.2082055072394,-5.610835656295758,0.1188460555676987,0.5098442406177437,-0.0124236898429446
1501822124.491409,0.003343645561973,-0.0016367488974153,-0.0008674675737603,0.6571696400642395,0.0752179622650146,0.0901608169078826,42.30597148388312,-83.24482907877533,156.03082859284604,1294.609980982796,-1777.2082055072394,-5.610835656295758,0.1188460555676987,0.5098442406177437,-0.0124236898429446
1501822124.499376,0.0031417111122434,-0.0022162249226637,-0.0009618059592057,0.6818472743034363,0.0604375302791595,0.0916557013988494,42.30597149223036,-83.24482905004577,156.030884394555,1294.609980982796,-1777.2082055072394,-5.610835656295758,0.1195146417833219,0.5129771394930663,-0.0119506370936888
1501822124.50942,0.0030479444351833,-0.0018272608827819,-0.0010574531686928,0.6655683517456055,0.1082693710923194,0.1669599711894989,42.30597150903333,-83.24482899195262,156.0309884896331,1294.609980982796,-1777.2082055072394,-5.610835656295758,0.1224012971518152,0.5229481972364537,-0.0100514215410747
1501822124.511465,0.0051934912991556,-0.001658150283599,-0.0003106026704193,0.6669739484786987,0.0596763603389263,0.1486105322837829,42.30597151750674,-83.24482896261505,156.0310353840463,1294.609980982796,-1777.2082055072394,-5.610835656295758,0.1224012971518152,0.5229481972364537,-0.0100514215410747
1501822124.519406,0.0045068014538624,-0.0015532258978391,-0.0009798768985996,0.660897970199585,0.0330547727644443,0.1239673420786857,42.30597152467978,-83.24482893248135,156.0310763792315,1294.609980982796,-1777.2082055072394,-5.610835656295758,0.123126889535443,0.5262321341184717,-0.009479431197376
1501822124.521394,0.0034484297676716,-0.001637941858345,-0.0002868120464285,0.6640052199363708,0.0869024991989135,0.098603717982769,42.30597153204108,-83.24482890229247,156.0311146537436,1294.609980982796,-1777.2082055072394,-5.610835656295758,0.123126889535443,0.5262321341184717,-0.009479431197376
1501822124.529414,0.004328246385597,-0.0006784330056165,-0.0005894470798209,0.658305287361145,0.102440595626831,0.0904361680150032,42.30597153945033,-83.24482887188923,156.0311514058988,1294.617209178012,-1777.179322146179,-5.611266827858089,0.1243659340349853,0.5331804895781925,-0.0087123385905536
1501822124.539532,0.0033718646665548,0.0006902037745195,-0.0007702759128931,0.7186182141304016,0.0630581304430961,0.0764834880828857,42.30597155436082,-83.24482881039283,156.0312209022484,1294.617209178012,-1777.179322146179,-5.611266827858089,0.1259079170069377,0.5446610632220068,-0.0076921758736111
1501822124.541527,0.0018248246365406,0.0012899215795542,-0.0009432542074032,0.7105472683906555,0.1007781326770782,0.1068121120333671,42.30597156183291,-83.24482877929992,156.0312526960753,1294.617209178012,-1777.179322146179,-5.611266827858089,0.1259079170069377,0.5446610632220068,-0.0076921758736111
1501822124.549639,0.0027928018994091,0.0013756898007798,-0.0011502433316803,0.714863657951355,0.0993374362587928,0.1165126636624336,42.30597156935185,-83.24482874799783,156.03128210325738,1294.617209178012,-1777.179322146179,-5.611266827858089,0.1278678222389281,0.5515510542390725,-0.0068771867220878
1501822124.551496,0.0027896214504862,0.000987851752689,-0.0010532906140993,0.7380306720733643,0.0518993884325027,0.0682713165879249,42.30597157690325,-83.24482871648766,156.03130923478128,1294.617209178012,-1777.179322146179,-5.611266827858089,0.1278678222389281,0.5515510542390725,-0.0068771867220878
1501822124.559546,0.001613912421105,-6.520107220382857e-05,-0.0010375939582388,0.7432098984718323,0.0302489195019006,0.0181454103440046,42.30597158447167,-83.24482868477544,156.03133482971785,1294.617209178012,-1777.179322146179,-5.611266827858089,0.1297160013934729,0.5583244136406985,-0.0066752303231126
1501822124.56147,0.0023823918705968,0.000216813870787,-0.0018236888919624,0.722923994064331,0.0333455502986907,0.0287916641682386,42.3059715921024,-83.24482865285046,156.0313603757698,1294.617209178012,-1777.179322146179,-5.611266827858089,0.1297160013934729,0.5583244136406985,-0.0066752303231126
1501822124.569559,0.003837715779568,-0.0003818403765494,-0.0012615892126038,0.7126891613006592,-0.0081602996215224,0.0286100879311561,42.305971599800046,-83.24482862074044,156.03138536160142,1294.617209178012,-1777.179322146179,-5.611266827858089,0.1326542608251481,0.5649997723263621,-0.0066860259271942
1501822124.571467,0.003375035752802,0.0003992675669698,-0.0002855125850626,0.7195450067520142,-0.0761334151029586,0.0083605982363224,42.30597160754972,-83.244828588404,156.03141053558443,1294.617209178012,-1777.179322146179,-5.611266827858089,0.1326542608251481,0.5649997723263621,-0.0066860259271942
1501822124.579564,0.0014416954941819,0.0002277035566401,0.0003223711961812,0.7042638063430786,-0.0856522768735885,0.0384770072996616,42.30597161532922,-83.24482855585703,156.0314350882165,1294.6238327445228,-1777.1507982884193,-5.611543859890266,0.1350156606138016,0.5719113779195567,-0.0065087710795535
1501822124.581405,0.0019283092508362,0.0012887325197394,-0.0004597992484842,0.6849281787872314,-0.0349778607487678,0.0372140742838382,42.30597162318752,-83.24482852309677,156.03145965002685,1294.6238327445228,-1777.1507982884193,-5.611543859890266,0.1350156606138016,0.5719113779195567,-0.0065087710795535
1501822124.589393,0.0026067530495372,0.0013778515385709,-0.0005659105484458,0.7048375010490417,-0.035081673413515,0.0250359158962965,42.30597163111448,-83.24482849014278,156.03148387609895,1294.6238327445228,-1777.1507982884193,-5.611543859890266,0.1377049442359187,0.5784973511549785,-0.0064908830585847
1501822124.591405,0.0021124825747118,0.0008987272722967,-0.000850231993099,0.7475200891494751,-0.0339474976062774,0.0012622226495295,42.30597163908949,-83.24482845699087,156.0315077629019,1294.6238327445228,-1777.1507982884193,-5.611543859890266,0.1377049442359187,0.5784973511549785,-0.0064908830585847
1501822124.599374,0.0021304282232995,0.0017712417833933,-0.000268510291071,0.7571746110916138,-0.011371268890798,-0.0199295654892921,42.30597164712442,-83.24482842360237,156.03153265608069,1294.6238327445228,-1777.1507982884193,-5.611543859890266,0.140344036900532,0.5861027608132198,-0.0069175098171492
1501822124.601409,0.0023260080169671,0.0022538249081556,-0.000561988432566,0.7442713379859924,0.0020135508384555,-0.0066369967535138,42.30597165521974,-83.24482838998915,156.03155847002444,1294.6238327445228,-1777.1507982884193,-5.611543859890266,0.140344036900532,0.5861027608132198,-0.0069175098171492
1501822124.609401,0.0033870028128019,0.0016597338761652,-0.0004794249121941,0.7457151412963867,-0.0466695241630077,-0.0100294603034853,42.30597166338629,-83.24482835618475,156.031584635272,1294.6238327445228,-1777.1507982884193,-5.611543859890266,0.1433828782468859,0.5922712864824852,-0.0071064931573566
1501822124.611453,0.0032878055237573,0.0007881619394417,0.000103604321631,0.7329842448234558,-0.075049839913845,-0.0214637611061334,42.30597167160841,-83.2448283221907,156.03161104300725,1294.6238327445228,-1777.1507982884193,-5.611543859890266,0.1433828782468859,0.5922712864824852,-0.0071064931573566
1501822124.619372,0.0039623202495903,0.0001985436169322,0.0002883540271026,0.7476077079772949,-0.0380962193012237,-0.0317338481545448,42.30597167990165,-83.24482828800677,156.03163822541012,1294.6288953369744,-1777.129819050842,-5.611757979037364,0.1467709149334581,0.5985100062490122,-0.0074897497929161
1501822124.621404,0.0056033190215538,-0.0002083205747849,7.220740137889478e-05,0.7320458889007568,-0.0239075645804405,-0.0214630551636219,42.3059716882797,-83.244828253635,156.03166640390629,1294.6288953369744,-1777.129819050842,-5.611757979037364,0.1467709149334581,0.5985100062490122,-0.0074897497929161
1501822124.629367,0.006287745700069,0.0001716374163079,0.0001600026012585,0.7566759586334229,-0.045858196914196,-0.0086863385513424,42.305971696730445,-83.2448282190481,156.0316955750955,1294.6288953369744,-1777.129819050842,-5.611757979037364,0.1497041957324659,0.6054114507079489,-0.007695855576116
1501822124.631407,0.0058018821278058,-0.0005984901892012,0.0007482636771379,0.7680298686027527,-0.0710363760590553,-0.0073212240822613,42.30597170523181,-83.24482818425936,156.0317248024865,1294.6288953369744,-1777.129819050842,-5.611757979037364,0.1497041957324659,0.6054114507079489,-0.007695855576116
1501822124.639377,0.0056124762385442,-0.0002084202320154,0.0007508785294221,0.7472466230392456,-0.026266474276781,0.0420981310307979,42.305971713795344,-83.24482814924629,156.0317541086179,1294.6288953369744,-1777.129819050842,-5.611757979037364,0.1509963613727649,0.6090863372649136,-0.0075961178425622
1501822124.659426,0.006002695917268,-0.0001159578033143,0.0008425925698705,0.7167735695838928,0.01387201808393,0.0336293540894985,42.30597174871141,-83.24482800715822,156.0318674514514,1294.6288953369744,-1777.129819050842,-5.611757979037364,0.1576758935878459,0.6261358906310275,-0.0072015353950708
1501822124.661424,0.0064928564375323,0.0004601861415523,0.0007390967723789,0.7176342010498047,-0.0010786447674036,0.0668711438775062,42.30597175757294,-83.24482797110483,156.03189480142998,1294.6288953369744,-1777.129819050842,-5.611757979037364,0.1576758935878459,0.6261358906310275,-0.0072015353950708
1501822124.669373,0.0056250050590865,0.0007611382664956,0.0008478217542902,0.7434508204460144,-0.0499328263103961,0.079634852707386,42.30597176647759,-83.24482793482922,156.03192066438626,1294.639593107208,-1777.0893108782373,-5.612038724213875,0.1597250831334491,0.6334516865893468,-0.0061948116453764
1501822124.671401,0.0050500483453871,0.0006708245962513,0.0014373912640998,0.7510356903076172,0.0030264179222285,0.1463757455348968,42.305971775427295,-83.2448278983362,156.03194388022192,1294.639593107208,-1777.0893108782373,-5.612038724213875,0.1597250831334491,0.6334516865893468,-0.0061948116453764
1501822124.679383,0.0069809587295869,0.0007454509082923,0.0007325515468551,0.736596941947937,0.0624388754367828,0.1819638907909393,42.30597178445932,-83.24482786164027,156.0319635899593,1294.639593107208,-1777.0893108782373,-5.612038724213875,0.1630130458017476,0.6404534271920267,-0.0047045170069984
1501822124.681429,0.0079556684064748,0.0014129571512098,0.0005255607320949,0.7378041744232178,0.0213086046278476,0.1764288991689682,42.30597179355612,-83.24482782472,156.0319795840674,1294.639593107208,-1777.0893108782373,-5.612038724213875,0.1630130458017476,0.6404534271920267,-0.0047045170069984
1501822124.689383,0.0072775901422378,0.0004511162770258,0.0014072985840792,0.745145320892334,-0.0177901536226272,0.1448834985494613,42.3059718026848,-83.24482778760003,156.03199124076167,1294.639593107208,-1777.0893108782373,-5.612038724213875,0.164068171445448,0.6473799326003045,-0.0032055772195573
1501822124.691409,0.0045496102079395,-2.1581452604920563e-06,0.0008622018488979,0.7428871989250183,-0.0123533196747303,0.1314925104379654,42.305971811822296,-83.24482775025814,156.03199912961637,1294.639593107208,-1777.0893108782373,-5.612038724213875,0.164068171445448,0.6473799326003045,-0.0032055772195573
1501822124.699369,0.003687561087689,0.0013653853959409,0.0004861592767709,0.736623227596283,-0.0374311842024326,0.0784629881381988,42.30597182101152,-83.24482771266807,156.03200531561362,1294.639593107208,-1777.0893108782373,-5.612038724213875,0.166460219454417,0.6554140076983801,-0.0028527385966123
1501822124.701416,0.0019535445226849,0.0024521120755485,0.0004127506652298,0.7419136762619019,-0.1036253198981285,0.0612860433757305,42.3059718302442,-83.24482767483332,156.03201042889702,1294.639593107208,-1777.0893108782373,-5.612038724213875,0.166460219454417,0.6554140076983801,-0.0028527385966123
1501822124.709412,0.0007175359606338,0.0041148897315788,0.0008175704939498,0.7453818321228027,-0.1356768459081649,0.0667179375886917,42.30597183954089,-83.24482763674624,156.0320150212621,1294.639593107208,-1777.0893108782373,-5.612038724213875,0.1689438822846989,0.663287632224384,-0.0022179734663194
1501822124.711419,-0.0010340549968586,0.0041351599244851,0.0003563476311187,0.7679274678230286,-0.0703748539090156,0.1131150498986244,42.30597184888477,-83.24482759843808,156.03201750347026,1294.639593107208,-1777.0893108782373,-5.612038724213875,0.1689438822846989,0.663287632224384,-0.0022179734663194
1501822124.721448,0.0004194017735133,0.0038274345213441,0.0005306325390386,0.8314833641052246,0.0259954445064067,0.1339298784732818,42.30597186780437,-83.24482752116016,156.0320147516747,1294.639593107208,-1777.0893108782373,-5.612038724213875,0.1719373460959808,0.6707456118877231,-0.0010801555963893
1501822124.729393,0.0010053748455168,0.0029479331135008,0.0015892742799069,0.8475048542022705,0.0682823807001113,0.1645425111055374,42.305971877338166,-83.24482748218684,156.03200786563082,1294.647269008649,-1777.0589252519162,-5.611992391833467,0.1737728803961951,0.6783053899333188,0.0006066987646951
1501822124.731417,0.0006995752277353,0.0018848137705034,0.0013992906355319,0.8496217727661133,0.0804990381002426,0.1593260616064071,42.30597188690589,-83.2448274429844,156.03199661928562,1294.647269008649,-1777.0589252519162,-5.611992391833467,0.1737728803961951,0.6783053899333188,0.0006066987646951
1501822124.739414,0.0013748398778851,0.0015860933108353,0.0013901335485786,0.8104144334793091,0.0270006004720926,0.1100945025682449,42.30597189653077,-83.24482740354931,156.03198224264418,1294.647269008649,-1777.0589252519162,-5.611992391833467,0.1764253859927275,0.6856894738509351,0.0012168988653614
1501822124.741419,0.0005006346886188,0.0017901489267613,0.0011110447993485,0.7646452188491821,-0.0673615112900734,0.0401923656463623,42.30597190620252,-83.24482736387844,156.03196630586507,1294.647269008649,-1777.0589252519162,-5.611992391833467,0.1764253859927275,0.6856894738509351,0.0012168988653614
1501822124.749403,-0.0012285216724143,0.0030707568546185,0.0012315445162962,0.7200317978858948,-0.104750208556652,0.0569580644369125,42.30597191592146,-83.24482732395845,156.03194994429063,1294.647269008649,-1777.0589252519162,-5.611992391833467,0.1775618471521968,0.6896531075016407,0.0013332141411077
1501822124.751428,-0.0019870783761395,0.0051158846003663,0.000757241117751,0.6976264119148254,-0.1387730985879898,0.0502227619290351,42.305971925716186,-83.24482728379371,156.03193359369303,1294.647269008649,-1777.0589252519162,-5.611992391833467,0.1775618471521968,0.6896531075016407,0.0013332141411077
1501822124.759439,-0.0027570474013288,0.0056096398679535,0.0007677061835043,0.7342684268951416,-0.1497117280960083,0.0130940461531281,42.30597193558123,-83.24482724341877,156.03191698745798,1294.647269008649,-1777.0589252519162,-5.611992391833467,0.1829172640137387,0.7010662509297546,0.0011308641883832
1501822124.76142,-0.0026475735353981,0.0065780635484013,0.0008633520926197,0.7918566465377808,-0.1114454939961433,0.0193320289254188,42.30597194553419,-83.24482720281408,156.0319008984635,1294.647269008649,-1777.0589252519162,-5.611992391833467,0.1829172640137387,0.7010662509297546,0.0011308641883832
1501822124.769381,-0.0027394759996951,0.0066760959645433,0.0011555214100731,0.8418537378311157,-0.0202964507043361,0.0739064589142799,42.30597195555616,-83.24482716197612,156.0318840535797,1294.647269008649,-1777.0589252519162,-5.611992391833467,0.1843111076786352,0.7050921512940458,0.0014096530201741
1501822124.789398,-0.0009313275239423,0.0038430712300726,0.0010337139093811,0.9087891578674316,0.0271162558346986,0.0595791935920715,42.305971996322505,-83.2448269962689,156.0317999721196,1294.6579281250968,-1777.020375825316,-5.611792552633822,0.1939307091957479,0.7290308970713382,0.0029780378638096
1501822124.799436,-0.0009307705747749,0.0035521593719815,0.0013245742727558,0.8473594188690186,-0.097977802157402,0.0747245550155639,42.30597201713311,-83.24482691191037,156.0317513877762,1294.6579281250968,-1777.020375825316,-5.611792552633822,0.1950812939304986,0.7329637898121121,0.0034621664808929
1501822124.801419,-0.0018081559528897,0.0033683749892592,0.0011424399315897,0.8324877023696899,-0.0322787649929523,0.1045370325446128,42.30597202762801,-83.24482686937506,156.0317241662742,1294.6579281250968,-1777.020375825316,-5.611792552633822,0.1950812939304986,0.7329637898121121,0.0034621664808929
1501822124.809386,-0.0016968151434155,0.0040458699067848,0.0016259006771624,0.8425276279449463,0.0404637716710567,0.0995239615440368,42.305972038184656,-83.2448268265814,156.0316951065364,1294.6579281250968,-1777.020375825316,-5.611792552633822,0.1982656123787234,0.7417658915946611,0.0040624477935225
1501822124.811415,-0.0003255270680804,0.0055815060677504,0.0013167258798069,0.8477810621261597,0.0336713716387748,0.1076801717281341,42.30597204882604,-83.24482678351603,156.03166479610138,1294.6579281250968,-1777.020375825316,-5.611792552633822,0.1982656123787234,0.7417658915946611,0.0040624477935225
1501822124.819421,-0.0009212278626159,0.0053944626936589,0.0004519905493793,0.8427040576934814,0.0452774390578269,0.1028611436486244,42.3059720595107,-83.24482674020534,156.03163200273997,1294.6579281250968,-1777.020375825316,-5.611792552633822,0.2000588070161213,0.7503425148435694,0.0051013942298691
1501822124.821412,-0.0013891412349908,0.0061756297390686,0.0010402532832326,0.847022533416748,0.0857490599155426,0.1391168534755706,42.3059720702348,-83.24482669662133,156.03159683470662,1294.6579281250968,-1777.020375825316,-5.611792552633822,0.2000588070161213,0.7503425148435694,0.0051013942298691
1501822124.829383,-0.0014859037082029,0.0060797809069609,0.0011385150199109,0.8349230289459229,0.0894762724637985,0.0980715602636337,42.30597208099688,-83.24482665278747,156.0315589276759,1294.6678852153727,-1776.982524685121,-5.61141029221893,0.2023273714633096,0.7581492840119542,0.0058686035411769
1501822124.83146,-0.00131556074683,0.0053990269980662,-2.7545991591592997e-05,0.8528618812561035,0.0080163991078734,0.0691251307725906,42.30597209181168,-83.24482660872596,156.03151892346796,1294.6678852153727,-1776.982524685121,-5.61141029221893,0.2023273714633096,0.7581492840119542,0.0058686035411769
1501822124.839381,-0.0021731348982039,0.0057968273232211,0.0007598566852396,0.857209324836731,-0.0058755204081535,0.1075109019875526,42.305972102670616,-83.24482656439959,156.03147714691443,1294.6678852153727,-1776.982524685121,-5.61141029221893,0.2042650216183344,0.7666401780677808,0.0072066420840655
1501822124.841421,-0.0031519562201361,0.0052263402468747,0.0005790305829479,0.8826895356178284,0.0263278149068355,0.1773656606674194,42.30597211356961,-83.2448265198274,156.03143172439917,1294.6678852153727,-1776.982524685121,-5.61141029221893,0.2042650216183344,0.7666401780677808,0.0072066420840655
1501822124.849391,-0.0030555682539523,0.0055161317047727,0.0002868618181525,0.8897726535797119,0.0126640051603317,0.1909969747066497,42.305972124531685,-83.24482647499227,156.0313822260538,1294.6678852153727,-1776.982524685121,-5.61141029221893,0.2073713217961854,0.7754800411703426,0.0087739738207301
1501822124.851419,-0.0026533864566408,0.0061902610004558,0.0007663982047043,0.8993282318115234,0.0060127065517008,0.1807871162891388,42.3059721355639,-83.2448264298839,156.03132885908354,1294.6678852153727,-1776.982524685121,-5.61141029221893,0.2073713217961854,0.7754800411703426,0.0087739738207301
1501822124.859376,-0.005166725489903,0.0065102522889965,0.0010912705681803,0.8831298351287842,0.0715609043836593,0.2142700254917144,42.30597214660837,-83.2448263844871,156.0312707138907,1294.6678852153727,-1776.982524685121,-5.61141029221893,0.2083715445047123,0.784921658916936,0.0105661804247478
1501822124.861418,-0.0054635394747302,0.0075803457850985,-0.0002621560251205,0.8563249707221985,0.1442311257123947,0.18319633603096,42.305972157697774,-83.24482633880586,156.03120844038972,1294.6678852153727,-1776.982524685121,-5.61141029221893,0.2083715445047123,0.784921658916936,0.0105661804247478
1501822124.869462,-0.0046784354241856,0.0073773218840207,0.0005999631851605,0.8486599326133728,0.0915963575243949,0.1393411457538604,42.30597216883119,-83.24482629287542,156.03114241120997,1294.6678852153727,-1776.982524685121,-5.61141029221893,0.2104949121568629,0.7932819612458168,0.0117455700851439
1501822124.87142,-0.005166905461336,0.0079647881727623,-0.000169125439674,0.8356985449790955,0.0658491998910904,0.1343131810426712,42.30597218000516,-83.24482624667932,156.0310735186759,1294.6678852153727,-1776.982524685121,-5.61141029221893,0.2104949121568629,0.7932819612458168,0.0117455700851439
1501822124.879394,-0.0059346313454705,0.0086524548572209,-0.0001586598050082,0.8548192977905273,0.0668572261929512,0.1340419948101043,42.30597219121513,-83.24482620021121,156.0310018443852,1294.6783857247174,-1776.9424991010976,-5.61070049057181,0.2132675396828197,0.8016066524938542,0.0128345638526636
1501822124.881417,-0.0045910166412551,0.0082490296445606,-0.0008556486260886,0.8749294877052307,0.0026071008760482,0.1258277297019958,42.305972202502375,-83.24482615351161,156.03092724768197,1294.6783857247174,-1776.9424991010976,-5.61070049057181,0.2132675396828197,0.8016066524938542,0.0128345638526636
1501822124.889397,-0.0048794307455269,0.0083493356304535,-0.0007547702166059,0.9091317057609558,-0.0706696584820747,0.1070345714688301,42.30597221385488,-83.24482610655286,156.03085015150538,1294.6783857247174,-1776.9424991010976,-5.61070049057181,0.2160151374651596,0.8105466475599225,0.0137767309167912
1501822124.891431,-0.0066117743824341,0.0085633201038927,4.440620372837364e-05,0.928208351135254,-0.0577891245484352,0.1156156584620475,42.305972225253946,-83.24482605931455,156.03077056397163,1294.6783857247174,-1776.9424991010976,-5.61070049057181,0.2160151374651596,0.8105466475599225,0.0137767309167912
1501822124.899438,-0.0066142065975234,0.0084663779193219,-5.254631879683989e-05,0.911394476890564,-0.023436589166522,0.114623449742794,42.305972236726255,-83.24482601181705,156.03068846480875,1294.6783857247174,-1776.9424991010976,-5.61070049057181,0.2195538015089637,0.8193283607282931,0.0143998612892706
1501822124.901422,-0.0056363182922329,0.0095217205198471,-0.0003564876811428,0.899967610836029,-0.0003925012133549,0.0741794183850288,42.30597224828849,-83.24482596404313,156.03060510405564,1294.6783857247174,-1776.9424991010976,-5.61070049057181,0.2195538015089637,0.8193283607282931,0.0143998612892706
1501822124.929425,-0.0056467992875385,0.0088430555279325,-0.0005503919784795,0.8937340378761292,-0.0157290492206811,0.0324217900633811,42.30597230684439,-83.24482572137778,156.030171170017,1294.690055383964,-1776.90105281529,-5.609871726728572,0.2274579933125999,0.8445312755416867,0.0150767676268789
1501822124.931466,-0.0047651145557352,0.0095116348375158,-0.0004652107124966,0.8795605897903442,-0.0460182167589664,0.0377869680523872,42.30597231874919,-83.24482567206641,156.0300836069387,1294.690055383964,-1776.90105281529,-5.609871726728572,0.2274579933125999,0.8445312755416867,0.0150767676268789
1501822124.939445,-0.0041867997623488,0.0092140349080778,-0.000473059170464,0.8893764615058899,-0.0631277188658714,-0.0011133273364976,42.30597233073564,-83.24482562251632,156.02999592563492,1294.690055383964,-1776.90105281529,-5.609871726728572,0.2306932540814291,0.8529623762740121,0.0147282364460991
1501822124.941442,-0.0048545905265781,0.009706607357634,-7.608724705353253e-05,0.8986801505088806,-0.0335689187049865,-0.0256655365228652,42.30597234278415,-83.24482557269533,156.0299091629007,1294.690055383964,-1776.90105281529,-5.609871726728572,0.2306932540814291,0.8529623762740121,0.0147282364460991
1501822124.949404,-0.0046528503523694,0.009704272930491,0.0005030192775973,0.8915150165557861,0.0645564347505569,-0.0176267623901367,42.30597235489257,-83.24482552261475,156.02982334212075,1294.690055383964,-1776.90105281529,-5.609871726728572,0.2333878932298637,0.8614047508304961,0.0142478261033345
1501822124.951421,-0.0033930966143157,0.0099806019010192,0.0001951528979173,0.8591259717941284,0.0681164264678955,-0.0324581936001777,42.30597236707191,-83.24482547227956,156.02973881605078,1294.690055383964,-1776.90105281529,-5.609871726728572,0.2333878932298637,0.8614047508304961,0.0142478261033345
1501822124.959394,-0.0049584626516182,0.0092229637798107,-0.0001717322133994,0.8824631571769714,0.0233423188328742,-0.0410275347530841,42.30597237927221,-83.24482542169584,156.02965494023474,1294.690055383964,-1776.90105281529,-5.609871726728572,0.2347886817245524,0.8697672495295172,0.0138519292665011
1501822124.961418,-0.0062270048212692,0.0087527972535194,-0.0003486333715031,0.894739031791687,0.0210575442761182,-0.0479157119989395,42.30597239150565,-83.24482537085568,156.0295721247131,1294.690055383964,-1776.90105281529,-5.609871726728572,0.2347886817245524,0.8697672495295172,0.0138519292665011
1501822124.969416,-0.0070124906609231,0.0084709791542834,-0.0008229359573159,0.8954998850822449,-0.0024970760568976,-0.0540397353470325,42.30597240378588,-83.2448253197586,156.02949071579744,1294.690055383964,-1776.90105281529,-5.609871726728572,0.2386841667813399,0.8783211793070758,0.0128670952297462
1501822124.971475,-0.00417242155328,0.0098926478851274,1.1713208156103668e-05,0.8842899799346924,-0.0431644022464752,-0.0673322156071662,42.30597241618565,-83.24482526839331,156.02941238032076,1294.690055383964,-1776.90105281529,-5.609871726728572,0.2386841667813399,0.8783211793070758,0.0128670952297462
1501822124.979422,-0.0049537974383727,0.009513814260361,-7.477576537743751e-05,0.903506338596344,-0.0592007003724575,-0.0428807735443115,42.305972428643045,-83.24482521677832,156.02933553836192,1294.7019107807869,-1776.8568042705108,-5.609142443892748,0.2413020235255135,0.8864770526455367,0.0124038043959926
1501822124.981441,-0.00514713617158,0.0092251432026559,0.0002187021891891,0.8638337850570679,-0.0061988504603505,-0.0319669246673584,42.305972441162574,-83.24482516491602,156.0292598595778,1294.7019107807869,-1776.8568042705108,-5.609142443892748,0.2413020235255135,0.8864770526455367,0.0124038043959926
1501822124.989412,-0.0049609115114643,0.0084472359288384,0.0003130402170323,0.8379912376403809,0.0457367114722728,-0.0386304184794425,42.305972453735386,-83.2448251128257,156.02918503807578,1294.7019107807869,-1776.8568042705108,-5.609142443892748,0.2442287754062826,0.8939532511176009,0.0117159071605014
1501822124.991424,-0.0032177352587638,0.0080391871148245,0.0004834020337937,0.8623671531677246,0.0181322805583477,-0.0795555487275123,42.30597246638712,-83.24482506050941,156.02911207657684,1294.7019107807869,-1776.8568042705108,-5.609142443892748,0.2442287754062826,0.8939532511176009,0.0117159071605014
1501822124.999411,-0.0047771185462893,0.0075723875107473,0.000310424454488,0.8746759295463562,0.0180555563420057,-0.0675212815403938,42.305972479066256,-83.24482500794078,156.02904086362184,1294.7019107807869,-1776.8568042705108,-5.609142443892748,0.2460624172364738,0.9018689570164647,0.0109719556097467
1501822125.001426,-0.0043928888994235,0.0066952192296755,0.0007899613286792,0.8529015183448792,0.0299936570227146,-0.084010511636734,42.305972491799686,-83.24482495514272,156.02897149503238,1294.7019107807869,-1776.8568042705108,-5.609142443892748,0.2460624172364738,0.9018689570164647,0.0109719556097467
1501822125.009447,-0.0040990491245793,0.0078554466846632,1.04078128287676e-05,0.8671436905860901,-0.0265348851680755,-0.0826978683471679,42.30597250460656,-83.24482490207441,156.0289052656179,1294.7019107807869,-1776.8568042705108,-5.609142443892748,0.2478665547323893,0.9063020663283964,0.0103264789377743
1501822125.019404,-0.0057275294789735,0.0085530736956284,0.0009052306908727,0.8618664741516113,-0.0505605265498161,-0.0539641492068767,42.30597253036845,-83.24482479515393,156.02877960688778,1294.7019107807869,-1776.8568042705108,-5.609142443892748,0.2505362006783624,0.9147763749334196,0.0094573455178295
1501822125.039395,-0.004675521551446,0.0065045478187475,0.0015695202044989,0.8594461679458618,0.1022562757134437,-0.1009122729301452,42.30597258265277,-83.24482457845667,156.02855407879233,1294.7135850119637,-1776.816113622326,-5.6086706523884775,0.2567242242757229,0.9343154566980484,0.0068175971631766
1501822125.041435,-0.0035132780002894,0.0063941291027933,0.0015538234186013,0.8309991359710693,0.0615154020488262,-0.1154908165335655,42.3059725958609,-83.2448245236841,156.02850462253718,1294.7135850119637,-1776.816113622326,-5.6086706523884775,0.2567242242757229,0.9343154566980484,0.0068175971631766
1501822125.049391,-0.0036214403113981,0.0061044739238417,0.000973409435299,0.8135871887207031,0.0056844851933419,-0.092072807252407,42.30597260911722,-83.24482446867916,156.02845795043828,1294.7135850119637,-1776.816113622326,-5.6086706523884775,0.2579401628566233,0.9380539036967164,0.006305697899134
1501822125.051436,-0.003154273742448,0.0057111916098642,-2.6678858583133718e-06,0.804807722568512,0.0242432076483964,-0.0821863785386085,42.30597262243587,-83.24482441345513,156.02841368140153,1294.7135850119637,-1776.816113622326,-5.6086706523884775,0.2579401628566233,0.9380539036967164,0.006305697899134
1501822125.05941,-0.0034284789460366,0.0065870855267426,0.0004860253059842,0.8139872550964355,0.0120639326050877,-0.1140646338462829,42.30597263580436,-83.24482435797256,156.02837265069843,1294.7135850119637,-1776.816113622326,-5.6086706523884775,0.2615828626968597,0.9494267818855858,0.0045514195234232
1501822125.061435,-0.0034342819844549,0.005520493671355,0.0009707941929033,0.8232853412628174,-0.0034727116581052,-0.1157179549336433,42.305972649220216,-83.24482430227707,156.02833428613096,1294.7135850119637,-1776.816113622326,-5.6086706523884775,0.2615828626968597,0.9494267818855858,0.0045514195234232
1501822125.069425,-0.0053803312951247,0.0051551370981206,0.0008030496341136,0.8299694657325745,0.02334551140666,-0.0773552507162094,42.305972662656025,-83.2448242463368,156.02829824259587,1294.7135850119637,-1776.816113622326,-5.6086706523884775,0.2629585289422354,0.95808778420327,0.0037095458443541
1501822125.071439,-0.0059595797553386,0.00593759151144,0.0003261309931728,0.8724935054779053,0.0683362036943435,-0.064806081354618,42.305972676137,-83.2448241901259,156.02826468339703,1294.7135850119637,-1776.816113622326,-5.6086706523884775,0.2629585289422354,0.95808778420327,0.0037095458443541
1501822125.079435,-0.0050801384246645,0.0064122588840032,0.0004113126817765,0.8781406879425049,0.0411618500947952,-0.097545601427555,42.30597268968392,-83.24482413365308,156.02823389904637,1294.727933587308,-1776.7631744056046,-5.608895708943889,0.2654299969278462,0.9665886451773912,0.0025515967454364
1501822125.081479,-0.0053782715064691,0.0061248013330995,0.0001243765230036,0.8813119530677795,0.0713771432638168,-0.092703104019165,42.30597270327381,-83.24482407692685,156.0282056709614,1294.727933587308,-1776.7631744056046,-5.608895708943889,0.2654299969278462,0.9665886451773912,0.0025515967454364
1501822125.089399,-0.005773543909183,0.005256653469923,0.0003235173437324,0.8192425966262817,0.1206419169902801,-0.1016236990690231,42.30597271688928,-83.2448240199632,156.0281796826284,1294.727933587308,-1776.7631744056046,-5.608895708943889,0.2669004193634269,0.9737605197808108,0.0014975868377083
1501822125.091439,-0.0047181591766171,0.0041777806448251,0.0004060828796803,0.7943781614303589,0.0950609222054481,-0.1205123364925384,42.30597273054895,-83.24482396278978,156.02815634469775,1294.727933587308,-1776.7631744056046,-5.608895708943889,0.2669004193634269,0.9737605197808108,0.0014975868377083
1501822125.099407,-0.003753925813697,0.0034878388301696,0.0005869098597228,0.8055221438407898,0.016617139801383,-0.1423399150371551,42.30597274426346,-83.24482390540348,156.02813638994857,1294.727933587308,-1776.7631744056046,-5.608895708943889,0.2690890986656408,0.9808953943096522,0.0003261319068514
1501822125.101431,-0.0046372989480196,0.0023344328646577,0.0007925909401813,0.8383050560951233,0.0111271347850561,-0.0976114720106124,42.30597275800907,-83.2448238477987,156.02811906245608,1294.727933587308,-1776.7631744056046,-5.608895708943889,0.2690890986656408,0.9808953943096522,0.0003261319068514
1501822125.109393,-0.0042412785715464,0.003493478021763,0.0003995447736911,0.863523542881012,0.0414500199258327,-0.0744477957487106,42.30597277182235,-83.2448237899237,156.0281049456874,1294.727933587308,-1776.7631744056046,-5.608895708943889,0.2705706429761356,0.985423859256656,-0.000270744275636
1501822125.119446,-0.0033539785749876,0.0053256215399263,-9.699608497468503e-05,0.8798844218254089,0.0092031015083193,-0.0643085613846778,42.30597279967103,-83.24482367335078,156.02808549784825,1294.727933587308,-1776.7631744056046,-5.608895708943889,0.2741813292810537,0.9984422874455946,-0.0015347607043726
1501822125.121455,-0.0052064471617399,0.0046682748404486,-0.0002660488013655,0.8399786949157715,0.0298544019460678,-0.0369137711822986,42.30597281364235,-83.24482361468066,156.02807801472443,1294.7388035857214,-1776.723134603138,-5.608890097063497,0.2741813292810537,0.9984422874455946,-0.0015347607043726
1501822125.129423,-0.0039586565825712,0.0043629275569371,-0.0009617291722612,0.8114238381385803,0.0547077283263206,-0.1003082245588302,42.30597282768414,-83.24482355578718,156.0280726226657,1294.7388035857214,-1776.723134603138,-5.608890097063497,0.2769116522550963,1.0059012599235997,-0.00305229627579
1501822125.131444,-0.0033803404888132,0.0040653278875735,-0.0009695773701543,0.8337043523788452,0.0506191067397594,-0.1726371049880981,42.30597284177927,-83.24482349666327,156.02807091418524,1294.7388035857214,-1776.723134603138,-5.608890097063497,0.2769116522550963,1.0059012599235997,-0.00305229627579
1501822125.139407,-0.002991622479243,0.0035759842607647,-0.000490040821056,0.8186947107315063,0.0643786862492561,-0.1754842698574066,42.3059728559205,-83.24482343730914,156.02807369333738,1294.7388035857214,-1776.723134603138,-5.608890097063497,0.2790848013431305,1.013490995528968,-0.0046147430870497
1501822125.141437,-0.0024142421329071,0.0030844575700702,-0.0004009354236173,0.8421187400817871,0.0600201487541198,-0.1211690381169319,42.30597287011269,-83.24482337772609,156.0280803456236,1294.7388035857214,-1776.723134603138,-5.608890097063497,0.2790848013431305,1.013490995528968,-0.0046147430870497
1501822125.149424,-0.0029100069948051,0.0027023186607047,-0.0008791631161647,0.8539062142372131,0.006329124327749,-0.0740307345986366,42.30597288434678,-83.24482331790178,156.0280895454643,1294.7388035857214,-1776.723134603138,-5.608890097063497,0.2815924237548608,1.0210784381624296,-0.0052149230828857
1501822125.151436,-0.0022379231836897,0.0020157578122769,-0.0007913655999981,0.8340429067611694,0.0168247036635875,-0.0322514064610004,42.305972898644185,-83.24482325785385,156.0281001858173,1294.7388035857214,-1776.723134603138,-5.608890097063497,0.2815924237548608,1.0210784381624296,-0.0052149230828857
1501822125.159425,-0.0031958096927775,0.002123811672392,-2.6543754542809723e-06,0.8066471219062805,0.0523871481418609,-0.0269950181245803,42.30597291297198,-83.24482319755423,156.02811184801428,1294.7388035857214,-1776.723134603138,-5.608890097063497,0.2821922557888598,1.025186296599053,-0.0054069563127029
1501822125.169421,-0.0022293269470188,0.0023065653805635,-0.000403549333132,0.7531723380088806,-0.0018604440847411,-0.1266936212778091,42.305972941805294,-83.24482307627473,156.02814142953272,1294.7388035857214,-1776.723134603138,-5.608890097063497,0.2852051211152371,1.036174496347058,-0.0073383530217478
1501822125.171438,-0.0037806692565577,0.0024214865032356,-0.0004795727969573,0.7269195914268494,0.0538016222417354,-0.143425315618515,42.305972956269,-83.24482301529564,156.0281611822328,1294.7388035857214,-1776.723134603138,-5.608890097063497,0.2852051211152371,1.036174496347058,-0.0073383530217478
1501822125.179427,-0.0034887007164833,0.0031938596554872,-0.0010652184678947,0.755210280418396,0.0697799697518348,-0.1526569426059723,42.30597297078164,-83.24482295408355,156.02818540789116,1294.75620132532,-1776.6617608150527,-5.609207130536972,0.2884867076778294,1.0439000562536866,-0.0091578616578665
1501822125.181441,-0.0009514362106927,0.0040372190545056,-0.0006144604432517,0.7962278723716736,0.0152370408177375,-0.127585306763649,42.30597298538459,-83.24482289264263,156.0282142750003,1294.75620132532,-1776.6617608150527,-5.609207130536972,0.2884867076778294,1.0439000562536866,-0.0091578616578665
1501822125.189401,-0.0027997942577165,0.0032828568294973,-0.0003956992497001,0.8373032808303833,0.0085184657946228,-0.0744271576404571,42.30597300000437,-83.24482283096823,156.02824538088962,1294.75620132532,-1776.6617608150527,-5.609207130536972,0.2899775449866834,1.0517673326731878,-0.0096711951076857
1501822125.191462,-0.0028093291026271,0.0027981217197311,-0.0006865596780933,0.8517105579376221,0.0558223202824592,-0.032495941966772,42.30597301467402,-83.24482276905945,156.02827794334658,1294.75620132532,-1776.6617608150527,-5.609207130536972,0.2899775449866834,1.0517673326731878,-0.0096711951076857
1501822125.199407,-0.0036118295247845,0.0011589348855914,-0.0012578164444052,0.8562701344490051,0.0207991302013397,-0.0676580369472503,42.30597302937407,-83.24482270693449,156.02831115148362,1294.75620132532,-1776.6617608150527,-5.609207130536972,0.2921879708257607,1.0590687399739351,-0.0106675218239679
1501822125.201447,-0.0034201797142451,0.0009627785721634,-0.0012604317518194,0.8227252960205078,-0.0217092297971248,-0.1386264562606811,42.30597304413411,-83.24482264457384,156.02834725531562,1294.75620132532,-1776.6617608150527,-5.609207130536972,0.2921879708257607,1.0590687399739351,-0.0106675218239679
